File: bamboo-r-9mm.csv
Time sec,Extension mm,Load kgf,Compressive stress MPa,Cycle Count ,Total Cycle Count ,Repetitions Count ,Marked Data ,PIP Count ,Compressive extension mm,Compressive strain %,Compressive load kgf,Displacement (Strain 1) mm,True strain %,Corrected Position mm,True stress Pa
0,0,-0.02458734,0.0001434601,0,0,0,0,0,0,0,0.02458734,0,0,0,143.4601
0.9000001,-0.0148278,-0.06964943,0.0004063845,0,0,0,0,0,0.0148278,0.07899731,0.06964944,0,0.07902853,-0.0148278,406.0635
1.8,-0.03013391,-0.2791,0.001628469,0,0,0,0,0,0.03013391,0.1605429,0.2791,0,0.1606719,-0.03013391,1625.854
2.7,-0.04490192,-0.6474661,0.003777779,0,0,0,0,0,0.04490192,0.2392217,0.6474661,0,0.2395083,-0.04490192,3768.742
3.6,-0.06002866,-1.083425,0.006321477,0,0,0,0,0,0.06002866,0.3198117,1.083425,0,0.3203242,-0.06002866,6301.26
4.5,-0.07491625,-1.778212,0.01037536,0,0,0,0,0,0.07491625,0.3991276,1.778212,0,0.3999262,-0.07491625,10333.94
5.4,-0.08986362,-2.7979,0.01632494,0,0,0,0,0,0.08986363,0.478762,2.7979,0,0.4799117,-0.08986362,16246.79
6.3,-0.1051099,-3.867724,0.02256706,0,0,0,0,0,0.10511,0.5599891,3.867724,0,0.5615629,-0.1051099,22440.69
7.2,-0.119878,-5.244832,0.03060209,0,0,0,0,0,0.1198779,0.6386678,5.244832,0,0.640716,-0.119878,30406.65
8.1,-0.1350645,-6.745142,0.03935597,0,0,0,0,0,0.1350645,0.7195764,6.745142,0,0.7221778,-0.1350645,39072.78
9,-0.1499521,-8.474917,0.04944872,0,0,0,0,0,0.1499521,0.7988922,8.474917,0,0.8021004,-0.1499521,49053.68
9.900001,-0.165019,-10.85442,0.06333242,0,0,0,0,0,0.165019,0.8791637,10.85442,0,0.8830512,-0.165019,62775.62
10.8,-0.1799066,-13.56173,0.07912883,0,0,0,0,0,0.1799066,0.9584795,13.56173,0,0.9631025,-0.1799066,78370.4
11.7,-0.1950334,-17.17964,0.1002383,0,0,0,0,0,0.1950334,1.03907,17.17964,0,1.044506,-0.1950334,99196.73
12.6,-0.2099807,-21.88878,0.1277148,0,0,0,0,0,0.2099807,1.118704,21.88878,0,1.125009,-0.2099807,126286
13.5,-0.2249281,-27.74617,0.1618909,0,0,0,0,0,0.2249281,1.198338,27.74617,0,1.205576,-0.2249281,159950.9
14.4,-0.2400549,-35.48286,0.2070323,0,0,0,0,0,0.2400549,1.278928,35.48286,0,1.287177,-0.2400549,204384.5
15.3,-0.2548229,-44.79428,0.2613618,0,0,0,0,0,0.2548229,1.357607,44.79428,0,1.366907,-0.2548229,257813.5
16.2,-0.2700692,-57.48619,0.3354155,0,0,0,0,0,0.2700692,1.438834,57.48619,0,1.449286,-0.2700692,330589.4
17.1,-0.284897,-74.08836,0.4322844,0,0,0,0,0,0.284897,1.517832,74.08836,0,1.529468,-0.284897,425723
18,-0.2999639,-99.17972,0.5786852,0,0,0,0,0,0.2999639,1.598103,99.17972,0,1.61101,-0.2999639,569437.3
18.9,-0.3149113,-132.6257,0.7738327,0,0,0,0,0,0.3149113,1.677737,132.6257,0,1.691971,-0.3149113,760849.8
19.8,-0.3299185,-171.5633,1.001022,0,0,0,0,0,0.3299185,1.75769,171.5633,0,1.773321,-0.3299185,983427.6
20.7,-0.3450452,-215.8015,1.25914,0,0,0,0,0,0.3450452,1.83828,215.8015,0,1.855387,-0.3450452,1235993
21.6,-0.359873,-264.5468,1.543555,0,0,0,0,0,0.359873,1.917278,264.5468,0,1.935896,-0.359873,1513961
22.5,-0.3749997,-318.5547,1.858676,0,0,0,0,0,0.3749997,1.997867,318.5547,0,2.018095,-0.3749997,1821542
23.4,-0.3898873,-375.0734,2.188446,0,0,0,0,0,0.3898874,2.077183,375.0734,0,2.099061,-0.3898873,2142988
24.3,-0.4050141,-434.9585,2.537858,0,0,0,0,0,0.4050141,2.157773,434.9585,0,2.181394,-0.4050141,2483097
25.2,-0.4199017,-493.2435,2.877935,0,0,0,0,0,0.4199017,2.237089,493.2435,0,2.262492,-0.4199017,2813553
26.1,-0.4349686,-550.1071,3.209718,0,0,0,0,0,0.4349686,2.317361,550.1071,0,2.344634,-0.4349686,3135337
27,-0.4499758,-606.4439,3.538426,0,0,0,0,0,0.4499758,2.397314,606.4439,0,2.426517,-0.4499758,3453599
27.9,-0.4648634,-662.0497,3.86287,0,0,0,0,0,0.4648634,2.476629,662.0497,0,2.507814,-0.4648634,3767201
28.8,-0.4800499,-720.6821,4.204974,0,0,0,0,0,0.4800499,2.557538,720.6821,0,2.590812,-0.4800499,4097430
29.7,-0.4948777,-777.8791,4.538702,0,0,0,0,0,0.4948777,2.636535,777.8791,0,2.671915,-0.4948777,4419037
30.6,-0.5099447,-837.6162,4.887251,0,0,0,0,0,0.5099447,2.716807,837.6162,0,2.754394,-0.5099447,4754474
31.5,-0.5249518,-898.9998,5.245407,0,0,0,0,0,0.5249518,2.79676,898.9998,0,2.836614,-0.5249518,5098705
32.4,-0.539959,-962.5188,5.616021,0,0,0,0,0,0.539959,2.876713,962.5187,0,2.918901,-0.539959,5454465
33.3,-0.5548466,-1026.881,5.991556,0,0,0,0,0,0.5548466,2.956029,1026.881,0,3.0006,-0.5548466,5814444
34.2,-0.5699733,-1095.683,6.392996,0,0,0,0,0,0.5699733,3.036618,1095.683,0,3.083679,-0.5699733,6198865
35.1,-0.5849804,-1166.397,6.805593,0,0,0,0,0,0.5849804,3.116571,1166.397,0,3.16617,-0.5849804,6593491
36,-0.5998681,-1236.591,7.215155,0,0,0,0,0,0.5998681,3.195887,1236.591,0,3.248071,-0.5998681,6984567
36.9,-0.6150546,-1311.043,7.649561,0,0,0,0,0,0.6150546,3.276796,1311.043,0,3.331685,-0.6150546,7398901
37.8,-0.6298226,-1382.905,8.068852,0,0,0,0,0,0.6298226,3.355475,1382.905,0,3.413063,-0.6298226,7798104
38.7,-0.6450091,-1459.087,8.513355,0,0,0,0,0,0.6450092,3.436383,1459.087,0,3.496815,-0.6450091,8220804
39.6,-0.659837,-1535.466,8.959003,0,0,0,0,0,0.6598369,3.515381,1535.466,0,3.578658,-0.659837,8644061
40.5,-0.6749039,-1616.288,9.430579,0,0,0,0,0,0.6749039,3.595652,1616.288,0,3.661888,-0.6749039,9091488
41.4,-0.6899708,-1699.369,9.915329,0,0,0,0,0,0.6899709,3.675924,1699.369,0,3.745188,-0.6899708,9550849
42.3,-0.7048585,-1781.922,10.397,0,0,0,0,0,0.7048585,3.755239,1781.922,0,3.827565,-0.7048585,10000000
43.2,-0.7200449,-1867.862,10.89844,0,0,0,0,0,0.7200449,3.836148,1867.861,0,3.911665,-0.7200449,10500000
44.1,-0.7348727,-1952.936,11.39482,0,0,0,0,0,0.7348728,3.915145,1952.936,0,3.993848,-0.7348727,10900000
45,-0.7499995,-2040.092,11.90335,0,0,0,0,0,0.7499995,3.995735,2040.092,0,4.077757,-0.7499995,11400000
45.9,-0.7648871,-2126.581,12.40799,0,0,0,0,0,0.764887,4.075051,2126.581,0,4.160408,-0.7648871,11900000
46.8,-0.7800139,-2216.382,12.93196,0,0,0,0,0,0.7800138,4.155641,2216.382,0,4.244457,-0.7800139,12400000
47.7,-0.7948416,-2302.41,13.4339,0,0,0,0,0,0.7948416,4.234638,2302.41,0,4.326914,-0.7948416,12900000
48.6,-0.8099086,-2391.943,13.9563,0,0,0,0,0,0.8099086,4.31491,2391.943,0,4.41077,-0.8099086,13400000
49.5,-0.8249755,-2482.985,14.4875,0,0,0,0,0,0.8249755,4.395181,2482.985,0,4.494696,-0.8249755,13900000
50.4,-0.8398033,-2570.145,14.99606,0,0,0,0,0,0.8398033,4.474179,2570.145,0,4.577359,-0.8398033,14300000
51.3,-0.8550497,-2659.755,15.51891,0,0,0,0,0,0.8550497,4.555406,2659.755,0,4.662427,-0.8550497,14800000
52.2,-0.8698177,-2742.799,16.00344,0,0,0,0,0,0.8698177,4.634085,2742.799,0,4.744895,-0.8698177,15300000
53.1,-0.8850042,-2828.804,16.50526,0,0,0,0,0,0.8850042,4.714993,2828.803,0,4.829771,-0.8850042,15700000
54,-0.8998917,-2908.905,16.97263,0,0,0,0,0,0.8998917,4.794309,2908.905,0,4.913046,-0.8998917,16200000
54.9,-0.9149587,-2989.084,17.44045,0,0,0,0,0,0.9149587,4.87458,2989.084,0,4.997396,-0.9149587,16600000
55.8,-0.9299659,-3066.849,17.89419,0,0,0,0,0,0.9299659,4.954533,3066.849,0,5.081481,-0.9299659,17000000
56.7,-0.9449133,-3139.702,18.31926,0,0,0,0,0,0.9449133,5.034168,3139.702,0,5.165302,-0.9449133,17400000
57.6,-0.9599802,-3210.021,18.72955,0,0,0,0,0,0.9599802,5.114439,3210.021,0,5.249864,-0.9599802,17800000
58.5,-0.9748678,-3278.304,19.12797,0,0,0,0,0,0.9748679,5.193755,3278.304,0,5.333491,-0.9748678,18100000
59.4,-0.9899946,-3343.12,19.50615,0,0,0,0,0,0.9899946,5.274345,3343.12,0,5.418532,-0.9899946,18500000
60.3,-1.004882,-3404.313,19.86319,0,0,0,0,0,1.004882,5.353661,3404.313,0,5.502299,-1.004882,18800000
61.2,-1.019949,-3466.635,20.22682,0,0,0,0,0,1.019949,5.433932,3466.635,0,5.587147,-1.019949,19100000
62.1,-1.034837,-3521.529,20.54712,0,0,0,0,0,1.034837,5.513248,3521.53,0,5.671056,-1.034837,19400000
63,-1.049963,-3575.028,20.85926,0,0,0,0,0,1.049963,5.593838,3575.028,0,5.756384,-1.049963,19700000
63.9,-1.06509,-3627.018,21.16261,0,0,0,0,0,1.06509,5.674428,3627.018,0,5.841786,-1.06509,20000000
64.8,-1.079798,-3670.923,21.41878,0,0,0,0,0,1.079798,5.752789,3670.923,0,5.924895,-1.079798,20200000
65.70001,-1.095045,-3718.624,21.69711,0,0,0,0,0,1.095045,5.834015,3718.624,0,6.011117,-1.095045,20400000
66.60001,-1.109873,-3759.151,21.93357,0,0,0,0,0,1.109873,5.913013,3759.152,0,6.095044,-1.109873,20600000
67.5,-1.124999,-3800.064,22.17228,0,0,0,0,0,1.124999,5.993603,3800.064,0,6.180735,-1.124999,20800000
68.4,-1.139887,-3835.768,22.38061,0,0,0,0,0,1.139887,6.072919,3835.768,0,6.265144,-1.139887,21000000
69.3,-1.154894,-3869.305,22.57629,0,0,0,0,0,1.154894,6.152872,3869.305,0,6.350302,-1.154894,21200000
70.20001,-1.169961,-3904.116,22.7794,0,0,0,0,0,1.169961,6.233143,3904.116,0,6.435873,-1.169961,21400000
71.10001,-1.184789,-3934.556,22.95701,0,0,0,0,0,1.184789,6.31214,3934.556,0,6.520157,-1.184789,21500000
72,-1.200035,-3965.042,23.13488,0,0,0,0,0,1.200035,6.393367,3965.042,0,6.606894,-1.200035,21700000
72.9,-1.214923,-3991.007,23.28638,0,0,0,0,0,1.214923,6.472683,3991.007,0,6.691663,-1.214923,21800000
73.8,-1.230049,-4016.88,23.43734,0,0,0,0,0,1.230049,6.553273,4016.88,0,6.777868,-1.230049,21900000
74.70001,-1.244997,-4039.154,23.56731,0,0,0,0,0,1.244997,6.632908,4039.154,0,6.863124,-1.244997,22000000
75.60001,-1.260004,-4062.949,23.70614,0,0,0,0,0,1.260004,6.712861,4062.948,0,6.948794,-1.260004,22100000
76.5,-1.274951,-4086.056,23.84097,0,0,0,0,0,1.274951,6.792495,4086.056,0,7.034194,-1.274951,22200000
77.4,-1.289899,-4108.034,23.9692,0,0,0,0,0,1.289899,6.87213,4108.034,0,7.119669,-1.289899,22300000
78.3,-1.305085,-4131.472,24.10596,0,0,0,0,0,1.305085,6.953038,4131.472,0,7.206586,-1.305085,22400000
79.20001,-1.319853,-4150.089,24.21458,0,0,0,0,0,1.319853,7.031716,4150.089,0,7.291179,-1.319853,22500000
80.10001,-1.33504,-4171.396,24.3389,0,0,0,0,0,1.33504,7.112626,4171.396,0,7.378246,-1.33504,22600000
81.00001,-1.349808,-4189.674,24.44554,0,0,0,0,0,1.349808,7.191305,4189.673,0,7.462985,-1.349808,22700000
81.9,-1.365054,-4211.519,24.57301,0,0,0,0,0,1.365054,7.272532,4211.519,0,7.550544,-1.365054,22800000
82.8,-1.379942,-4230.378,24.68304,0,0,0,0,0,1.379942,7.351847,4230.378,0,7.636117,-1.379942,22900000
83.70001,-1.395009,-4248.229,24.7872,0,0,0,0,0,1.395009,7.432118,4248.229,0,7.722795,-1.395009,22900000
84.60001,-1.410135,-4266.986,24.89664,0,0,0,0,0,1.410135,7.512709,4266.986,0,7.809894,-1.410135,23000000
85.50001,-1.424784,-4281.937,24.98388,0,0,0,0,0,1.424784,7.59075,4281.937,0,7.894311,-1.424784,23100000
86.4,-1.44003,-4300.977,25.09497,0,0,0,0,0,1.44003,7.671978,4300.977,0,7.982249,-1.44003,23200000
87.3,-1.454918,-4318.322,25.19617,0,0,0,0,0,1.454918,7.751293,4318.322,0,8.068192,-1.454918,23200000
88.20001,-1.470104,-4337.9,25.3104,0,0,0,0,0,1.470104,7.832202,4337.9,0,8.155938,-1.470104,23300000
89.10001,-1.484932,-4353.552,25.40173,0,0,0,0,0,1.484932,7.911199,4353.552,0,8.241684,-1.484932,23400000
90.00001,-1.499999,-4370.984,25.50344,0,0,0,0,0,1.499999,7.99147,4370.984,0,8.32889,-1.499999,23500000
90.9,-1.514887,-4386.263,25.59259,0,0,0,0,0,1.514887,8.070786,4386.263,0,8.415133,-1.514887,23500000
91.8,-1.530013,-4403.046,25.69051,0,0,0,0,0,1.530013,8.151377,4403.045,0,8.502836,-1.530013,23600000
92.70001,-1.54514,-4422.545,25.80428,0,0,0,0,0,1.54514,8.231966,4422.545,0,8.590616,-1.54514,23700000
93.60001,-1.559789,-4436.23,25.88413,0,0,0,0,0,1.559788,8.310008,4436.23,0,8.675695,-1.559789,23700000
94.50001,-1.575095,-4454.253,25.98929,0,0,0,0,0,1.575095,8.391554,4454.253,0,8.764671,-1.575095,23800000
95.4,-1.589922,-4467.217,26.06493,0,0,0,0,0,1.589922,8.470551,4467.217,0,8.850942,-1.589922,23900000
96.3,-1.604989,-4482.88,26.15632,0,0,0,0,0,1.604989,8.550822,4482.88,0,8.93868,-1.604989,23900000
97.20001,-1.619996,-4498.325,26.24644,0,0,0,0,0,1.619997,8.630775,4498.325,0,9.026148,-1.619996,24000000
98.10001,-1.635064,-4511.956,26.32597,0,0,0,0,0,1.635064,8.711047,4511.957,0,9.11404,-1.635064,24000000
99.00001,-1.650011,-4526.222,26.40921,0,0,0,0,0,1.650011,8.790682,4526.222,0,9.201312,-1.650011,24100000
99.9,-1.664898,-4537.658,26.47593,0,0,0,0,0,1.664898,8.869997,4537.658,0,9.28831,-1.664898,24100000
100.8,-1.680025,-4550.456,26.55061,0,0,0,0,0,1.680025,8.950587,4550.457,0,9.376783,-1.680025,24200000
101.7,-1.694853,-4561.424,26.6146,0,0,0,0,0,1.694853,9.029584,4561.423,0,9.463583,-1.694853,24200000
102.6,-1.710159,-4574.771,26.69248,0,0,0,0,0,1.710159,9.11113,4574.771,0,9.553264,-1.710159,24300000
103.5,-1.724808,-4581.922,26.73421,0,0,0,0,0,1.724808,9.189172,4581.922,0,9.639165,-1.724808,24300000
104.4,-1.740114,-4594.625,26.80832,0,0,0,0,0,1.740113,9.270717,4594.625,0,9.729002,-1.740114,24300000
105.3,-1.754941,-4602.548,26.85455,0,0,0,0,0,1.754941,9.349714,4602.548,0,9.816109,-1.754941,24300000
106.2,-1.770008,-4610.642,26.90178,0,0,0,0,0,1.770008,9.429986,4610.642,0,9.9047,-1.770008,24400000
107.1,-1.785195,-4622.034,26.96824,0,0,0,0,0,1.785195,9.510895,4622.034,0,9.994072,-1.785195,24400000
108,-1.799903,-4626.74,26.9957,0,0,0,0,0,1.799903,9.589254,4626.74,0,10.08071,-1.799903,24400000
108.9,-1.81509,-4635.953,27.04946,0,0,0,0,0,1.81509,9.670163,4635.953,0,10.17024,-1.81509,24400000
109.8,-1.829917,-4642.295,27.08646,0,0,0,0,0,1.829917,9.749161,4642.295,0,10.25773,-1.829917,24400000
110.7,-1.845044,-4650.128,27.13216,0,0,0,0,0,1.845044,9.82975,4650.128,0,10.34706,-1.845044,24500000
111.6,-1.859932,-4655.999,27.16642,0,0,0,0,0,1.859932,9.909066,4655.999,0,10.43506,-1.859932,24500000
112.5,-1.875059,-4664.255,27.21459,0,0,0,0,0,1.875059,9.989656,4664.255,0,10.52456,-1.875059,24500000
113.4,-1.889886,-4670.068,27.24851,0,0,0,0,0,1.889886,10.06865,4670.068,0,10.61236,-1.889886,24500000
114.3,-1.904953,-4676.885,27.28829,0,0,0,0,0,1.904953,10.14892,4676.885,0,10.70166,-1.904953,24500000
115.2,-1.92002,-4684.268,27.33136,0,0,0,0,0,1.92002,10.2292,4684.268,0,10.79104,-1.92002,24500000
116.1,-1.934848,-4688.25,27.3546,0,0,0,0,0,1.934848,10.30819,4688.25,0,10.87908,-1.934848,24500000
117,-1.950154,-4696.587,27.40324,0,0,0,0,0,1.950154,10.38974,4696.587,0,10.97004,-1.950154,24600000
117.9,-1.964862,-4698.647,27.41526,0,0,0,0,0,1.964862,10.4681,4698.647,0,11.05752,-1.964862,24500000
118.8,-1.980049,-4705.664,27.4562,0,0,0,0,0,1.980049,10.54901,4705.664,0,11.14793,-1.980049,24600000
119.7,-1.994996,-4712.478,27.49596,0,0,0,0,0,1.994996,10.62864,4712.478,0,11.23699,-1.994996,24600000
120.6,-2.009884,-4716.854,27.52149,0,0,0,0,0,2.009884,10.70796,4716.854,0,11.32578,-2.009884,24600000
121.5,-2.02507,-4724.005,27.56322,0,0,0,0,0,2.02507,10.78887,4724.005,0,11.41643,-2.02507,24600000
122.4,-2.039958,-4728.282,27.58817,0,0,0,0,0,2.039958,10.86818,4728.282,0,11.50538,-2.039958,24600000
123.3,-2.054905,-4732.349,27.6119,0,0,0,0,0,2.054905,10.94782,4732.349,0,11.59477,-2.054905,24600000
124.2,-2.069913,-4738.004,27.6449,0,0,0,0,0,2.069913,11.02777,4738.004,0,11.68459,-2.069913,24600000
125.1,-2.084979,-4744.673,27.68381,0,0,0,0,0,2.08498,11.10804,4744.673,0,11.77485,-2.084979,24600000
126,-2.099867,-4749.406,27.71142,0,0,0,0,0,2.099867,11.18736,4749.406,0,11.86412,-2.099867,24600000
126.9,-2.115054,-4755.821,27.74885,0,0,0,0,0,2.115053,11.26827,4755.821,0,11.95526,-2.115054,24600000
127.8,-2.130001,-4760.102,27.77383,0,0,0,0,0,2.130001,11.3479,4760.102,0,12.04505,-2.130001,24600000
128.7,-2.144829,-4762.671,27.78882,0,0,0,0,0,2.144829,11.4269,4762.671,0,12.1342,-2.144829,24600000
129.6,-2.160075,-4769.863,27.83079,0,0,0,0,0,2.160075,11.50813,4769.863,0,12.22594,-2.160075,24600000
130.5,-2.174903,-4774.234,27.85629,0,0,0,0,0,2.174903,11.58712,4774.234,0,12.31526,-2.174903,24600000
131.4,-2.190089,-4780.81,27.89466,0,0,0,0,0,2.190089,11.66803,4780.81,0,12.40681,-2.190089,24600000
132.3,-2.204857,-4783.409,27.90982,0,0,0,0,0,2.204857,11.74671,4783.409,0,12.49592,-2.204857,24600000
133.2,-2.219984,-4788.686,27.94061,0,0,0,0,0,2.219984,11.8273,4788.687,0,12.58728,-2.219984,24600000
134.1,-2.234991,-4794.939,27.9771,0,0,0,0,0,2.234991,11.90725,4794.939,0,12.678,-2.234991,24600000
135,-2.249879,-4798.285,27.99662,0,0,0,0,0,2.249879,11.98657,4798.285,0,12.76808,-2.249879,24600000
135.9,-2.265006,-4804.964,28.03559,0,0,0,0,0,2.265006,12.06716,4804.964,0,12.85968,-2.265006,24700000
136.8,-2.279953,-4809.921,28.06451,0,0,0,0,0,2.279953,12.14679,4809.921,0,12.95029,-2.279953,24700000
137.7,-2.29502,-4814.24,28.08971,0,0,0,0,0,2.29502,12.22706,4814.24,0,13.0417,-2.29502,24700000
138.6,-2.309968,-4818.308,28.11345,0,0,0,0,0,2.309968,12.3067,4818.308,0,13.13247,-2.309968,24700000
139.5,-2.325034,-4822.908,28.14029,0,0,0,0,0,2.325034,12.38697,4822.908,0,13.22405,-2.325034,24700000
140.4,-2.339922,-4828.169,28.17099,0,0,0,0,0,2.339922,12.46629,4828.169,0,13.31462,-2.339922,24700000
141.3,-2.354989,-4833.753,28.20357,0,0,0,0,0,2.354989,12.54656,4833.753,0,13.40636,-2.354989,24700000
142.2,-2.370056,-4839.57,28.23751,0,0,0,0,0,2.370056,12.62683,4839.57,0,13.49819,-2.370056,24700000
143.1,-2.384824,-4842.673,28.25561,0,0,0,0,0,2.384824,12.70551,4842.673,0,13.58828,-2.384824,24700000
144,-2.40007,-4849.923,28.29791,0,0,0,0,0,2.40007,12.78673,4849.923,0,13.68137,-2.40007,24700000
144.9,-2.414898,-4850.931,28.30379,0,0,0,0,0,2.414898,12.86573,4850.931,0,13.77199,-2.414898,24700000
145.8,-2.430025,-4857.781,28.34376,0,0,0,0,0,2.430025,12.94632,4857.781,0,13.86453,-2.430025,24700000
146.7,-2.444793,-4859.497,28.35377,0,0,0,0,0,2.444793,13.025,4859.497,0,13.95495,-2.444793,24700000
147.6,-2.459979,-4864.253,28.38152,0,0,0,0,0,2.45998,13.10591,4864.252,0,14.04802,-2.459979,24700000
148.5,-2.474987,-4870.435,28.4176,0,0,0,0,0,2.474987,13.18586,4870.436,0,14.14007,-2.474987,24700000
149.4,-2.489994,-4874.501,28.44132,0,0,0,0,0,2.489994,13.26582,4874.501,0,14.23221,-2.489994,24700000
150.3,-2.50518,-4880.709,28.47754,0,0,0,0,0,2.50518,13.34673,4880.709,0,14.32554,-2.50518,24700000
151.2,-2.519888,-4883.854,28.49589,0,0,0,0,0,2.519888,13.42508,4883.854,0,14.41601,-2.519888,24700000
152.1,-2.535075,-4890.121,28.53246,0,0,0,0,0,2.535075,13.50599,4890.121,0,14.50951,-2.535075,24700000
153,-2.549903,-4893.97,28.55492,0,0,0,0,0,2.549903,13.58499,4893.97,0,14.60088,-2.549903,24700000
153.9,-2.56491,-4899.739,28.58857,0,0,0,0,0,2.56491,13.66494,4899.739,0,14.69344,-2.56491,24700000
154.8,-2.579977,-4903.933,28.61305,0,0,0,0,0,2.579977,13.74522,4903.934,0,14.78647,-2.579977,24700000
155.7,-2.594924,-4906.373,28.62728,0,0,0,0,0,2.594924,13.82485,4906.373,0,14.87883,-2.594924,24700000
156.6,-2.609931,-4912.77,28.6646,0,0,0,0,0,2.609931,13.9048,4912.77,0,14.97166,-2.609931,24700000
157.5,-2.624819,-4917.233,28.69065,0,0,0,0,0,2.624819,13.98412,4917.233,0,15.06382,-2.624819,24700000
158.4,-2.640125,-4924.92,28.7355,0,0,0,0,0,2.640125,14.06566,4924.92,0,15.15867,-2.640125,24700000
159.3,-2.654953,-4927.097,28.7482,0,0,0,0,0,2.654953,14.14466,4927.097,0,15.25064,-2.654953,24700000
160.2,-2.67008,-4932.456,28.77946,0,0,0,0,0,2.67008,14.22525,4932.456,0,15.34455,-2.67008,24700000
161.1,-2.684788,-4933.951,28.78819,0,0,0,0,0,2.684788,14.30361,4933.951,0,15.43595,-2.684788,24700000
162,-2.700034,-4940.086,28.82398,0,0,0,0,0,2.700034,14.38484,4940.085,0,15.53078,-2.700034,24700000
162.9,-2.715041,-4944.457,28.84949,0,0,0,0,0,2.715041,14.46479,4944.458,0,15.62421,-2.715041,24700000
163.8,-2.729869,-4946.83,28.86334,0,0,0,0,0,2.729869,14.54379,4946.83,0,15.71661,-2.729869,24700000
164.7,-2.745115,-4953.551,28.90255,0,0,0,0,0,2.745116,14.62502,4953.551,0,15.81171,-2.745115,24700000
165.6,-2.759883,-4956.275,28.91844,0,0,0,0,0,2.759883,14.70369,4956.274,0,15.9039,-2.759883,24700000
166.5,-2.77501,-4960.937,28.94565,0,0,0,0,0,2.77501,14.78428,4960.937,0,15.99843,-2.77501,24700000
167.4,-2.789958,-4964.934,28.96897,0,0,0,0,0,2.789958,14.86392,4964.934,0,16.09193,-2.789958,24700000
168.3,-2.805024,-4970.428,29.00102,0,0,0,0,0,2.805024,14.94419,4970.428,0,16.18625,-2.805024,24700000
169.2,-2.819972,-4974.936,29.02733,0,0,0,0,0,2.819972,15.02383,4974.936,0,16.27993,-2.819972,24700000
170.1,-2.835039,-4978.436,29.04775,0,0,0,0,0,2.835039,15.1041,4978.436,0,16.37443,-2.835039,24700000
171,-2.849986,-4981.915,29.06805,0,0,0,0,0,2.849986,15.18373,4981.915,0,16.46828,-2.849986,24700000
171.9,-2.864814,-4984.515,29.08322,0,0,0,0,0,2.864814,15.26273,4984.515,0,16.56146,-2.864814,24600000
172.8,-2.88018,-4991.279,29.12268,0,0,0,0,0,2.88018,15.34459,4991.278,0,16.65812,-2.88018,24700000
173.7,-2.894948,-4993.84,29.13762,0,0,0,0,0,2.894948,15.42327,4993.839,0,16.7511,-2.894948,24600000
174.6,-2.910015,-5000.255,29.17505,0,0,0,0,0,2.910015,15.50354,5000.254,0,16.84606,-2.910015,24700000
175.5,-2.924843,-5002.548,29.18843,0,0,0,0,0,2.924843,15.58254,5002.548,0,16.93959,-2.924843,24600000
176.4,-2.940029,-5007.368,29.21656,0,0,0,0,0,2.940029,15.66345,5007.368,0,17.03548,-2.940029,24600000
177.3,-2.954977,-5013.093,29.24996,0,0,0,0,0,2.954977,15.74308,5013.093,0,17.12995,-2.954977,24600000
178.2,-2.969924,-5016.518,29.26995,0,0,0,0,0,2.969924,15.82272,5016.518,0,17.22451,-2.969924,24600000
179.1,-2.984991,-5023.323,29.30965,0,0,0,0,0,2.984991,15.90299,5023.323,0,17.31991,-2.984991,24600000
180,-2.999938,-5027.943,29.33661,0,0,0,0,0,2.999938,15.98262,5027.943,0,17.41465,-2.999938,24600000
180.9,-3.015065,-5031.731,29.35871,0,0,0,0,0,3.015065,16.06321,5031.731,0,17.51062,-3.015065,24600000
181.8,-3.029833,-5034.262,29.37348,0,0,0,0,0,3.029833,16.14189,5034.262,0,17.6044,-3.029833,24600000
182.7,-3.045139,-5041.576,29.41615,0,0,0,0,0,3.045139,16.22344,5041.576,0,17.70169,-3.045139,24600000
183.6,-3.060027,-5046.594,29.44543,0,0,0,0,0,3.060027,16.30275,5046.594,0,17.79641,-3.060027,24600000
184.5,-3.074974,-5051.791,29.47575,0,0,0,0,0,3.074974,16.38239,5051.791,0,17.8916,-3.074974,24600000
185.4,-3.090041,-5056.269,29.50188,0,0,0,0,0,3.090041,16.46266,5056.27,0,17.98764,-3.090041,24600000
186.3,-3.104869,-5058.704,29.51609,0,0,0,0,0,3.104869,16.54166,5058.704,0,18.08226,-3.104869,24600000
187.2,-3.120115,-5065.51,29.5558,0,0,0,0,0,3.120115,16.62288,5065.51,0,18.17963,-3.120115,24600000
188.1,-3.134943,-5068.03,29.5705,0,0,0,0,0,3.134943,16.70188,5068.03,0,18.27442,-3.134943,24600000
189,-3.14989,-5072.802,29.59834,0,0,0,0,0,3.14989,16.78152,5072.802,0,18.37007,-3.14989,24600000
189.9,-3.164897,-5078.247,29.63012,0,0,0,0,0,3.164897,16.86147,5078.248,0,18.46619,-3.164897,24600000
190.8,-3.180024,-5083.448,29.66046,0,0,0,0,0,3.180025,16.94206,5083.448,0,18.56317,-3.180024,24600000
191.7,-3.195031,-5089.603,29.69637,0,0,0,0,0,3.195031,17.02201,5089.603,0,18.65948,-3.195031,24600000
192.6,-3.209919,-5092.575,29.71372,0,0,0,0,0,3.209919,17.10133,5092.575,0,18.75511,-3.209919,24600000
193.5,-3.225165,-5100.165,29.758,0,0,0,0,0,3.225165,17.18255,5100.165,0,18.85314,-3.225165,24600000
194.4,-3.239874,-5103.249,29.776,0,0,0,0,0,3.239874,17.26091,5103.249,0,18.94781,-3.239874,24600000
195.3,-3.25506,-5109.168,29.81053,0,0,0,0,0,3.25506,17.34182,5109.167,0,19.04564,-3.25506,24600000
196.2,-3.269888,-5111.684,29.82521,0,0,0,0,0,3.269888,17.42082,5111.684,0,19.14126,-3.269888,24600000
197.1,-3.285074,-5117.795,29.86087,0,0,0,0,0,3.285074,17.50173,5117.795,0,19.23928,-3.285074,24600000
198,-3.300081,-5122.548,29.8886,0,0,0,0,0,3.300081,17.58168,5122.548,0,19.33624,-3.300081,24600000
198.9,-3.31479,-5124.44,29.89964,0,0,0,0,0,3.31479,17.66004,5124.44,0,19.43137,-3.31479,24600000
199.8,-3.330036,-5132.772,29.94826,0,0,0,0,0,3.330036,17.74127,5132.772,0,19.53006,-3.330036,24600000
200.7,-3.344984,-5137.353,29.97498,0,0,0,0,0,3.344984,17.8209,5137.353,0,19.62692,-3.344984,24600000
201.6,-3.359931,-5142.892,30.0073,0,0,0,0,0,3.359931,17.90054,5142.892,0,19.72387,-3.359931,24600000
202.5,-3.375057,-5149.569,30.04626,0,0,0,0,0,3.375057,17.98113,5149.569,0,19.82208,-3.375057,24600000
203.4,-3.390005,-5155.696,30.08201,0,0,0,0,0,3.390005,18.06076,5155.696,0,19.91922,-3.390005,24600000
204.3,-3.404833,-5160.748,30.11149,0,0,0,0,0,3.404833,18.13976,5160.748,0,20.01568,-3.404833,24600000
205.2,-3.420079,-5168.513,30.15679,0,0,0,0,0,3.420079,18.22099,5168.513,0,20.11495,-3.420079,24700000
206.1,-3.435086,-5175.952,30.2002,0,0,0,0,0,3.435086,18.30094,5175.952,0,20.21277,-3.435086,24700000
207,-3.449854,-5179.22,30.21927,0,0,0,0,0,3.449854,18.37962,5179.22,0,20.30912,-3.449854,24700000
207.9,-3.46516,-5187.763,30.26911,0,0,0,0,0,3.46516,18.46116,5187.763,0,20.40907,-3.46516,24700000
208.8,-3.479749,-5190.072,30.28258,0,0,0,0,0,3.479749,18.53889,5190.072,0,20.50444,-3.479749,24700000
209.7,-3.495055,-5197.89,30.3282,0,0,0,0,0,3.495055,18.62043,5197.891,0,20.60459,-3.495055,24700000
210.6,-3.509823,-5201.74,30.35066,0,0,0,0,0,3.509823,18.69911,5201.74,0,20.70132,-3.509823,24700000
211.5,-3.52495,-5208.983,30.39293,0,0,0,0,0,3.524949,18.7797,5208.983,0,20.8005,-3.52495,24700000
212.4,-3.540076,-5215.861,30.43305,0,0,0,0,0,3.540076,18.86029,5215.86,0,20.89977,-3.540076,24700000
213.3,-3.554904,-5219.792,30.45599,0,0,0,0,0,3.554904,18.93929,5219.792,0,20.99718,-3.554904,24700000
214.2,-3.570031,-5226.509,30.49518,0,0,0,0,0,3.570031,19.01988,5226.509,0,21.09664,-3.570031,24700000
215.1,-3.584978,-5232.393,30.52952,0,0,0,0,0,3.584978,19.09951,5232.394,0,21.19503,-3.584978,24700000
216,-3.600105,-5239.398,30.57039,0,0,0,0,0,3.600105,19.1801,5239.398,0,21.2947,-3.600105,24700000
216.9,-3.614933,-5242.113,30.58623,0,0,0,0,0,3.614933,19.2591,5242.113,0,21.39249,-3.614933,24700000
217.8,-3.63006,-5248.544,30.62375,0,0,0,0,0,3.63006,19.33969,5248.544,0,21.49235,-3.63006,24700000
218.7,-3.644828,-5250.134,30.63303,0,0,0,0,0,3.644828,19.41837,5250.134,0,21.58995,-3.644828,24700000
219.6,-3.660014,-5255.133,30.6622,0,0,0,0,0,3.660014,19.49928,5255.133,0,21.6904,-3.660014,24700000
220.5,-3.675021,-5263.017,30.7082,0,0,0,0,0,3.675021,19.57923,5263.017,0,21.78977,-3.675021,24700000
221.4,-3.689729,-5265.654,30.72358,0,0,0,0,0,3.689729,19.65759,5265.654,0,21.88725,-3.689729,24700000
222.3,-3.705095,-5271.943,30.76028,0,0,0,0,0,3.705096,19.73945,5271.943,0,21.9892,-3.705095,24700000
223.2,-3.719864,-5271.359,30.75687,0,0,0,0,0,3.719863,19.81813,5271.359,0,22.08728,-3.719864,24700000
224.1,-3.73505,-5260.748,30.69496,0,0,0,0,0,3.73505,19.89904,5260.748,0,22.18824,-3.73505,24600000
225,-3.749938,-5253.85,30.65471,0,0,0,0,0,3.749938,19.97836,5253.851,0,22.28731,-3.749938,24500000
225.9,-3.765005,-5248.992,30.62636,0,0,0,0,0,3.765004,20.05863,5248.992,0,22.38767,-3.765005,24500000
226.8,-3.780012,-5246.221,30.6102,0,0,0,0,0,3.780012,20.13858,5246.221,0,22.48773,-3.780012,24400000
227.7,-3.794959,-5245.405,30.60544,0,0,0,0,0,3.79496,20.21822,5245.405,0,22.5875,-3.794959,24400000
228.6,-3.809966,-5246.1,30.60949,0,0,0,0,0,3.809966,20.29817,5246.1,0,22.68776,-3.809966,24400000
229.5,-3.824914,-5250.354,30.63431,0,0,0,0,0,3.824914,20.3778,5250.354,0,22.78773,-3.824914,24400000
230.4,-3.839981,-5256.951,30.67281,0,0,0,0,0,3.839981,20.45807,5256.951,0,22.88859,-3.839981,24400000
231.3,-3.854808,-5262.794,30.7069,0,0,0,0,0,3.854809,20.53707,5262.794,0,22.98796,-3.854808,24400000
232.2,-3.869995,-5273.082,30.76693,0,0,0,0,0,3.869995,20.61798,5273.083,0,23.08983,-3.869995,24400000
233.1,-3.884883,-5280.033,30.80748,0,0,0,0,0,3.884883,20.6973,5280.033,0,23.1898,-3.884883,24400000
234,-3.900009,-5288.159,30.8549,0,0,0,0,0,3.900009,20.77789,5288.159,0,23.29147,-3.900009,24400000
234.9,-3.915136,-5296.88,30.90578,0,0,0,0,0,3.915136,20.85848,5296.88,0,23.39325,-3.915136,24500000
235.8,-3.929845,-5302.475,30.93843,0,0,0,0,0,3.929845,20.93684,5302.476,0,23.49231,-3.929845,24500000
236.7,-3.945091,-5313.72,31.00404,0,0,0,0,0,3.945091,21.01806,5313.72,0,23.5951,-3.945091,24500000
237.6,-3.959859,-5320.531,31.04377,0,0,0,0,0,3.959859,21.09674,5320.531,0,23.69477,-3.959859,24500000
238.5,-3.974925,-5330.235,31.10039,0,0,0,0,0,3.974926,21.17701,5330.235,0,23.79655,-3.974925,24500000
239.4,-3.989873,-5337.888,31.14505,0,0,0,0,0,3.989873,21.25665,5337.888,0,23.89763,-3.989873,24500000
240.3,-4.00494,-5345.399,31.18888,0,0,0,0,0,4.00494,21.33692,5345.399,0,23.99963,-4.00494,24500000
241.2,-4.019947,-5353.655,31.23704,0,0,0,0,0,4.019948,21.41687,5353.654,0,24.10132,-4.019947,24500000
242.1,-4.034775,-5360.588,31.2775,0,0,0,0,0,4.034775,21.49587,5360.588,0,24.20189,-4.034775,24600000
243,-4.050022,-5370.376,31.3346,0,0,0,0,0,4.050022,21.5771,5370.375,0,24.30542,-4.050022,24600000
243.9,-4.064909,-5378.059,31.37943,0,0,0,0,0,4.064909,21.65641,5378.059,0,24.40661,-4.064909,24600000
244.8,-4.080095,-5386.583,31.42917,0,0,0,0,0,4.080095,21.73732,5386.583,0,24.50993,-4.080095,24600000
245.7,-4.094923,-5390.838,31.45399,0,0,0,0,0,4.094923,21.81632,5390.838,0,24.61093,-4.094923,24600000
246.6,-4.10999,-5399.199,31.50278,0,0,0,0,0,4.10999,21.89659,5399.199,0,24.71365,-4.10999,24600000
247.5,-4.124878,-5406.945,31.54798,0,0,0,0,0,4.124878,21.97591,5406.945,0,24.81525,-4.124878,24600000
248.4,-4.140004,-5414.345,31.59115,0,0,0,0,0,4.140005,22.0565,5414.345,0,24.91859,-4.140004,24600000
249.3,-4.155071,-5422.854,31.6408,0,0,0,0,0,4.155071,22.13677,5422.854,0,25.02163,-4.155071,24600000
250.2,-4.169839,-5427.54,31.66814,0,0,0,0,0,4.169839,22.21545,5427.54,0,25.12273,-4.169839,24600000
251.1,-4.185085,-5435.229,31.71301,0,0,0,0,0,4.185085,22.29667,5435.229,0,25.22721,-4.185085,24600000
252,-4.199794,-5432.452,31.6968,0,0,0,0,0,4.199794,22.37503,5432.452,0,25.32811,-4.199794,24600000
252.9,-4.214981,-5439.124,31.73573,0,0,0,0,0,4.214981,22.45594,5439.124,0,25.43239,-4.214981,24600000
253.8,-4.229928,-5444.705,31.7683,0,0,0,0,0,4.229928,22.53558,5444.705,0,25.53514,-4.229928,24600000
254.7,-4.245055,-5453.481,31.8195,0,0,0,0,0,4.245054,22.61617,5453.481,0,25.63923,-4.245055,24600000
255.6,-4.260002,-5460.465,31.86025,0,0,0,0,0,4.260002,22.6958,5460.465,0,25.74219,-4.260002,24600000
256.5,-4.27489,-5465.236,31.88809,0,0,0,0,0,4.274889,22.77512,5465.236,0,25.84485,-4.27489,24600000
257.4,-4.290016,-5474.89,31.94442,0,0,0,0,0,4.290016,22.85571,5474.89,0,25.94926,-4.290016,24600000
258.3,-4.304964,-5483.295,31.99346,0,0,0,0,0,4.304964,22.93534,5483.295,0,26.05254,-4.304964,24700000
259.2,-4.32015,-5493.595,32.05355,0,0,0,0,0,4.32015,23.01625,5493.595,0,26.15758,-4.32015,24700000
260.1,-4.334858,-5499.721,32.0893,0,0,0,0,0,4.334858,23.09461,5499.721,0,26.25942,-4.334858,24700000
261,-4.350045,-5507.775,32.13629,0,0,0,0,0,4.350045,23.17552,5507.775,0,26.36468,-4.350045,24700000
261.9,-4.364932,-5515.915,32.18378,0,0,0,0,0,4.364932,23.25483,5515.915,0,26.46798,-4.364932,24700000
262.8,-4.37994,-5522.294,32.221,0,0,0,0,0,4.37994,23.33479,5522.294,0,26.57221,-4.37994,24700000
263.7,-4.395186,-5533.957,32.28905,0,0,0,0,0,4.395186,23.41602,5533.957,0,26.67822,-4.395186,24700000
264.6,-4.409835,-5539.456,32.32114,0,0,0,0,0,4.409834,23.49406,5539.456,0,26.78018,-4.409835,24700000
265.5,-4.425141,-5549.041,32.37706,0,0,0,0,0,4.42514,23.5756,5549.041,0,26.88682,-4.425141,24700000
266.4,-4.439908,-5553.511,32.40314,0,0,0,0,0,4.439909,23.65428,5553.511,0,26.98982,-4.439908,24700000
267.3,-4.454916,-5560.454,32.44365,0,0,0,0,0,4.454916,23.73423,5560.454,0,27.0946,-4.454916,24700000
268.2,-4.470042,-5567.118,32.48254,0,0,0,0,0,4.470042,23.81482,5567.118,0,27.20033,-4.470042,24700000
269.1,-4.485109,-5573.789,32.52147,0,0,0,0,0,4.485109,23.89509,5573.79,0,27.30575,-4.485109,24800000
270,-4.499937,-5578.57,32.54936,0,0,0,0,0,4.499938,23.97409,5578.57,0,27.4096,-4.499937,24700000
270.9,-4.514884,-5578.212,32.54727,0,0,0,0,0,4.514884,24.05373,5578.212,0,27.5144,-4.514884,24700000
271.8,-4.530071,-5581.906,32.56882,0,0,0,0,0,4.530071,24.13464,5581.906,0,27.62099,-4.530071,24700000
272.7,-4.544899,-5582.536,32.5725,0,0,0,0,0,4.544899,24.21363,5582.536,0,27.72517,-4.544899,24700000
273.6,-4.560145,-5587.287,32.60022,0,0,0,0,0,4.560145,24.29486,5587.287,0,27.83241,-4.560145,24700000
274.5,-4.574734,-5587.484,32.60137,0,0,0,0,0,4.574734,24.37258,5587.483,0,27.93513,-4.574734,24700000
275.4,-4.59016,-5593.174,32.63457,0,0,0,0,0,4.590159,24.45477,5593.174,0,28.04386,-4.59016,24700000
276.3,-4.604987,-5594.041,32.63963,0,0,0,0,0,4.604988,24.53376,5594.041,0,28.14848,-4.604987,24600000
277.2,-4.619935,-5593.642,32.6373,0,0,0,0,0,4.619935,24.6134,5593.643,0,28.25406,-4.619935,24600000
278.1,-4.635241,-5598.689,32.66675,0,0,0,0,0,4.635241,24.69494,5598.689,0,28.36229,-4.635241,24600000
279,-4.649949,-5597.827,32.66172,0,0,0,0,0,4.649949,24.7733,5597.827,0,28.4664,-4.649949,24600000
279.9,-4.665076,-5601.589,32.68367,0,0,0,0,0,4.665076,24.85389,5601.589,0,28.57359,-4.665076,24600000
280.8,-4.679963,-5604.31,32.69954,0,0,0,0,0,4.679964,24.93321,5604.31,0,28.67919,-4.679963,24500000
281.7,-4.694971,-5609.245,32.72834,0,0,0,0,0,4.694971,25.01316,5609.245,0,28.78576,-4.694971,24500000
282.6,-4.709978,-5613.031,32.75043,0,0,0,0,0,4.709978,25.09311,5613.031,0,28.89244,-4.709978,24500000
283.5,-4.725105,-5617.764,32.77804,0,0,0,0,0,4.725105,25.17371,5617.764,0,29.00008,-4.725105,24500000
284.4,-4.739813,-5619.021,32.78538,0,0,0,0,0,4.739813,25.25207,5619.021,0,29.10486,-4.739813,24500000
285.3,-4.75494,-5625.188,32.82136,0,0,0,0,0,4.75494,25.33266,5625.188,0,29.21274,-4.75494,24500000
286.2,-4.770066,-5631.956,32.86085,0,0,0,0,0,4.770066,25.41324,5631.956,0,29.32072,-4.770066,24500000
287.1,-4.784834,-5632.822,32.86591,0,0,0,0,0,4.784834,25.49192,5632.822,0,29.42626,-4.784834,24500000
288,-4.80014,-5632.948,32.86664,0,0,0,0,0,4.80014,25.57347,5632.948,0,29.53577,-4.80014,24500000
288.9,-4.814849,-5624.747,32.81879,0,0,0,0,0,4.814848,25.65183,5624.747,0,29.64111,-4.814849,24400000
289.8,-4.830095,-5612.966,32.75005,0,0,0,0,0,4.830095,25.73306,5612.965,0,29.75043,-4.830095,24300000
290.7,-4.844982,-5606.233,32.71077,0,0,0,0,0,4.844983,25.81237,5606.233,0,29.85728,-4.844982,24300000
291.6,-4.85981,-5599.231,32.66991,0,0,0,0,0,4.85981,25.89137,5599.23,0,29.96382,-4.85981,24200000
292.5,-4.875116,-5581.919,32.5689,0,0,0,0,0,4.875116,25.97292,5581.919,0,30.07392,-4.875116,24100000
293.4,-4.890004,-5568.589,32.49112,0,0,0,0,0,4.890004,26.05223,5568.589,0,30.18112,-4.890004,24000000
294.3,-4.904892,-5566.218,32.47729,0,0,0,0,0,4.904892,26.13155,5566.218,0,30.28844,-4.904892,24000000
295.2,-4.919959,-5569.159,32.49445,0,0,0,0,0,4.919959,26.21182,5569.159,0,30.39716,-4.919959,24000000
296.1,-4.934965,-5575.694,32.53257,0,0,0,0,0,4.934966,26.29177,5575.693,0,30.50557,-4.934965,24000000
297,-4.949853,-5579.712,32.55602,0,0,0,0,0,4.949853,26.37109,5579.712,0,30.61324,-4.949853,24000000
297.9,-4.9651,-5589.564,32.61351,0,0,0,0,0,4.965099,26.45231,5589.564,0,30.72362,-4.9651,24000000
298.8,-4.979927,-5595.093,32.64576,0,0,0,0,0,4.979928,26.53131,5595.093,0,30.83109,-4.979927,24000000
299.7,-4.994875,-5601.809,32.68496,0,0,0,0,0,4.994875,26.61095,5601.81,0,30.93954,-4.994875,24000000
300.6,-5.010121,-5614.018,32.75618,0,0,0,0,0,5.010121,26.69217,5614.018,0,31.05028,-5.010121,24000000
301.5,-5.024889,-5621.345,32.79893,0,0,0,0,0,5.024889,26.77085,5621.345,0,31.15767,-5.024889,24000000
302.4,-5.040136,-5633.617,32.87054,0,0,0,0,0,5.040135,26.85208,5633.617,0,31.26865,-5.040136,24000000
303.3,-5.054903,-5641.425,32.9161,0,0,0,0,0,5.054904,26.93076,5641.425,0,31.37627,-5.054903,24100000
304.2,-5.069971,-5649.427,32.96279,0,0,0,0,0,5.069971,27.01103,5649.427,0,31.48619,-5.069971,24100000
305.1,-5.084978,-5659.48,33.02145,0,0,0,0,0,5.084978,27.09098,5659.48,0,31.59579,-5.084978,24100000
306,-5.099805,-5665.94,33.05914,0,0,0,0,0,5.099805,27.16998,5665.94,0,31.7042,-5.099805,24100000
306.9,-5.115052,-5676.333,33.11978,0,0,0,0,0,5.115052,27.25121,5676.333,0,31.81579,-5.115052,24100000
307.8,-5.12994,-5685.732,33.17462,0,0,0,0,0,5.12994,27.33052,5685.732,0,31.92488,-5.12994,24100000
308.7,-5.144946,-5693.766,33.22149,0,0,0,0,0,5.144946,27.41047,5693.766,0,32.03496,-5.144946,24100000
309.6,-5.159954,-5702.313,33.27136,0,0,0,0,0,5.159954,27.49043,5702.313,0,32.14516,-5.159954,24100000
310.5,-5.17508,-5711.887,33.32722,0,0,0,0,0,5.17508,27.57102,5711.887,0,32.25637,-5.17508,24100000
311.4,-5.189968,-5720.119,33.37526,0,0,0,0,0,5.189968,27.65034,5720.119,0,32.36594,-5.189968,24100000
312.3,-5.204975,-5728.94,33.42672,0,0,0,0,0,5.204975,27.73029,5728.94,0,32.47651,-5.204975,24200000
313.2,-5.220042,-5738.027,33.47975,0,0,0,0,0,5.220042,27.81056,5738.027,0,32.58764,-5.220042,24200000
314.1,-5.23487,-5743.935,33.51422,0,0,0,0,0,5.23487,27.88956,5743.935,0,32.69713,-5.23487,24200000
315,-5.250116,-5755.208,33.57999,0,0,0,0,0,5.250116,27.97079,5755.208,0,32.80984,-5.250116,24200000
315.9,-5.264765,-5758.714,33.60044,0,0,0,0,0,5.264765,28.04883,5758.714,0,32.91824,-5.264765,24200000
316.8,-5.280011,-5768.926,33.66003,0,0,0,0,0,5.280011,28.13005,5768.926,0,33.0312,-5.280011,24200000
317.7,-5.294779,-5776.108,33.70194,0,0,0,0,0,5.294779,28.20873,5776.108,0,33.14073,-5.294779,24200000
318.6,-5.309965,-5785.674,33.75775,0,0,0,0,0,5.309965,28.28964,5785.674,0,33.2535,-5.309965,24200000
319.5,-5.324973,-5794.057,33.80666,0,0,0,0,0,5.324973,28.36959,5794.057,0,33.36506,-5.324973,24200000
320.4,-5.33998,-5800.789,33.84594,0,0,0,0,0,5.33998,28.44954,5800.789,0,33.47673,-5.33998,24200000
321.3,-5.355226,-5811.7,33.9096,0,0,0,0,0,5.355227,28.53078,5811.7,0,33.59032,-5.355226,24200000
322.2,-5.369814,-5817.52,33.94357,0,0,0,0,0,5.369814,28.60849,5817.52,0,33.69913,-5.369814,24200000
323.1,-5.385001,-5826.305,33.99482,0,0,0,0,0,5.385002,28.68941,5826.305,0,33.81253,-5.385001,24200000
324,-5.399889,-5833.391,34.03617,0,0,0,0,0,5.399889,28.76872,5833.391,0,33.92381,-5.399889,24200000
324.9,-5.414956,-5842.358,34.08849,0,0,0,0,0,5.414956,28.84899,5842.358,0,34.03657,-5.414956,24300000
325.8,-5.429963,-5851.256,34.1404,0,0,0,0,0,5.429963,28.92895,5851.256,0,34.14901,-5.429963,24300000
326.7,-5.44497,-5859.625,34.18924,0,0,0,0,0,5.44497,29.0089,5859.625,0,34.26156,-5.44497,24300000
327.6,-5.459918,-5868.595,34.24157,0,0,0,0,0,5.459918,29.08853,5868.595,0,34.3738,-5.459918,24300000
328.5,-5.474805,-5876.048,34.28506,0,0,0,0,0,5.474805,29.16785,5876.048,0,34.48571,-5.474805,24300000
329.4,-5.490171,-5888.309,34.3566,0,0,0,0,0,5.490171,29.24971,5888.309,0,34.60136,-5.490171,24300000
330.3,-5.504879,-5894.025,34.38995,0,0,0,0,0,5.504879,29.32807,5894.025,0,34.71217,-5.504879,24300000
331.2,-5.520125,-5904.725,34.45238,0,0,0,0,0,5.520125,29.4093,5904.725,0,34.82718,-5.520125,24300000
332.1,-5.534834,-5911.753,34.49339,0,0,0,0,0,5.534834,29.48766,5911.753,0,34.93825,-5.534834,24300000
333,-5.55002,-5922.132,34.55394,0,0,0,0,0,5.55002,29.56857,5922.132,0,35.05305,-5.55002,24300000
333.9,-5.565028,-5932.313,34.61335,0,0,0,0,0,5.565028,29.64852,5932.313,0,35.16664,-5.565028,24400000
334.8,-5.579915,-5940.925,34.6636,0,0,0,0,0,5.579915,29.72784,5940.925,0,35.27944,-5.579915,24400000
335.7,-5.595101,-5952.32,34.73008,0,0,0,0,0,5.595101,29.80874,5952.32,0,35.39465,-5.595101,24400000
336.6,-5.609869,-5959.368,34.77121,0,0,0,0,0,5.609869,29.88742,5959.368,0,35.5068,-5.609869,24400000
337.5,-5.624936,-5967.583,34.81914,0,0,0,0,0,5.624936,29.9677,5967.583,0,35.62135,-5.624936,24400000
338.4,-5.639884,-5975.04,34.86265,0,0,0,0,0,5.639884,30.04733,5975.04,0,35.73513,-5.639884,24400000
339.3,-5.65507,-5983.5,34.91201,0,0,0,0,0,5.65507,30.12824,5983.5,0,35.85086,-5.65507,24400000
340.2,-5.669958,-5991.068,34.95617,0,0,0,0,0,5.669958,30.20756,5991.068,0,35.96444,-5.669958,24400000
341.1,-5.685085,-5999.185,35.00352,0,0,0,0,0,5.685085,30.28815,5999.185,0,36.07998,-5.685085,24400000
342,-5.700032,-6008.106,35.05558,0,0,0,0,0,5.700032,30.36778,6008.106,0,36.19428,-5.700032,24400000
342.9,-5.71486,-6014.607,35.09351,0,0,0,0,0,5.714859,30.44678,6014.607,0,36.30779,-5.71486,24400000
343.8,-5.730166,-6026.183,35.16105,0,0,0,0,0,5.730166,30.52832,6026.183,0,36.4251,-5.730166,24400000
344.7,-5.744874,-6032.907,35.20029,0,0,0,0,0,5.744874,30.60668,6032.907,0,36.53796,-5.744874,24400000
345.6,-5.760061,-6045.444,35.27343,0,0,0,0,0,5.760061,30.68759,6045.444,0,36.65462,-5.760061,24400000
346.5,-5.774889,-6053.875,35.32262,0,0,0,0,0,5.774889,30.76659,6053.875,0,36.76866,-5.774889,24500000
347.4,-5.789896,-6062.806,35.37473,0,0,0,0,0,5.789896,30.84654,6062.806,0,36.88421,-5.789896,24500000
348.3,-5.805023,-6074.871,35.44513,0,0,0,0,0,5.805023,30.92713,6074.871,0,37.00082,-5.805023,24500000
349.2,-5.81997,-6084.277,35.50001,0,0,0,0,0,5.81997,31.00677,6084.277,0,37.11617,-5.81997,24500000
350.1,-5.834977,-6095.58,35.56597,0,0,0,0,0,5.834977,31.08672,6095.581,0,37.23212,-5.834977,24500000
351,-5.849984,-6105.85,35.62589,0,0,0,0,0,5.849984,31.16667,6105.851,0,37.34821,-5.849984,24500000
[...]
378,-6.29984,-6414.948,37.42939,0,0,0,0,0,6.29984,33.56335,6414.948,0,40.89213,-6.29984,24900000
378.9,-6.315087,-6426.804,37.49856,0,0,0,0,0,6.315087,33.64458,6426.804,0,41.01447,-6.315087,24900000
379.8,-6.329795,-6433.639,37.53844,0,0,0,0,0,6.329795,33.72293,6433.639,0,41.13263,-6.329795,24900000
380.7,-6.345041,-6447.494,37.61928,0,0,0,0,0,6.345041,33.80416,6447.494,0,41.25526,-6.345041,24900000
381.6,-6.359809,-6456.142,37.66974,0,0,0,0,0,6.359809,33.88284,6456.142,0,41.37419,-6.359809,24900000
382.5,-6.374996,-6468,37.73893,0,0,0,0,0,6.374996,33.96375,6468,0,41.49663,-6.374996,24900000
383.4,-6.390003,-6479.872,37.8082,0,0,0,0,0,6.390003,34.0437,6479.873,0,41.61778,-6.390003,24900000
384.3,-6.40495,-6488.67,37.85953,0,0,0,0,0,6.404951,34.12334,6488.67,0,41.73859,-6.40495,24900000
385.2,-6.420077,-6499.837,37.92469,0,0,0,0,0,6.420077,34.20393,6499.837,0,41.86101,-6.420077,25000000
386.1,-6.434905,-6509.272,37.97974,0,0,0,0,0,6.434905,34.28292,6509.272,0,41.98114,-6.434905,25000000
387,-6.450151,-6521.202,38.04935,0,0,0,0,0,6.450151,34.36415,6521.202,0,42.10481,-6.450151,25000000
387.9,-6.464919,-6529.509,38.09782,0,0,0,0,0,6.464919,34.44283,6529.509,0,42.22476,-6.464919,25000000
388.8,-6.480106,-6541.207,38.16607,0,0,0,0,0,6.480106,34.52374,6541.207,0,42.34825,-6.480106,25000000
389.7,-6.494874,-6549.163,38.21249,0,0,0,0,0,6.494874,34.60242,6549.163,0,42.46849,-6.494874,25000000
390.6,-6.509941,-6559.238,38.27127,0,0,0,0,0,6.509941,34.68269,6559.237,0,42.59131,-6.509941,25000000
391.5,-6.525007,-6569.422,38.3307,0,0,0,0,0,6.525007,34.76296,6569.422,0,42.71427,-6.525007,25000000
392.4,-6.539836,-6578.533,38.38386,0,0,0,0,0,6.539835,34.84196,6578.533,0,42.83545,-6.539836,25000000
393.3,-6.554962,-6591.591,38.46005,0,0,0,0,0,6.554962,34.92255,6591.591,0,42.9592,-6.554962,25000000
394.2,-6.56985,-6599.615,38.50687,0,0,0,0,0,6.56985,35.00187,6599.615,0,43.08116,-6.56985,25000000
395.1,-6.585096,-6611.906,38.57858,0,0,0,0,0,6.585096,35.08309,6611.906,0,43.20621,-6.585096,25000000
396,-6.599924,-6619.779,38.62452,0,0,0,0,0,6.599923,35.16209,6619.779,0,43.32796,-6.599924,25000000
396.9,-6.61511,-6632.4,38.69815,0,0,0,0,0,6.61511,35.243,6632.4,0,43.45283,-6.61511,25100000
397.8,-6.629938,-6642.689,38.75819,0,0,0,0,0,6.629938,35.32199,6642.689,0,43.5749,-6.629938,25100000
398.7,-6.645065,-6654.557,38.82743,0,0,0,0,0,6.645064,35.40258,6654.557,0,43.69957,-6.645065,25100000
399.6,-6.660012,-6666.243,38.89562,0,0,0,0,0,6.660013,35.48222,6666.244,0,43.82294,-6.660012,25100000
400.5,-6.67484,-6674.595,38.94435,0,0,0,0,0,6.67484,35.56121,6674.595,0,43.94545,-6.67484,25100000
401.4,-6.690026,-6686.721,39.0151,0,0,0,0,0,6.690026,35.64212,6686.721,0,44.07109,-6.690026,25100000
402.3,-6.704854,-6696.484,39.07206,0,0,0,0,0,6.704854,35.72112,6696.484,0,44.19391,-6.704854,25100000
403.2,-6.719981,-6709.815,39.14985,0,0,0,0,0,6.719981,35.80171,6709.814,0,44.31936,-6.719981,25100000
404.1,-6.734869,-6720.046,39.20954,0,0,0,0,0,6.734869,35.88103,6720.046,0,44.44299,-6.734869,25100000
405,-6.749936,-6722.835,39.22581,0,0,0,0,0,6.749936,35.9613,6722.835,0,44.56826,-6.749936,25100000
405.9,-6.765182,-6736.381,39.30485,0,0,0,0,0,6.765182,36.04253,6736.381,0,44.69518,-6.765182,25100000
406.8,-6.77989,-6741.928,39.33722,0,0,0,0,0,6.779891,36.12089,6741.928,0,44.81777,-6.77989,25100000
407.7,-6.795017,-6722.274,39.22254,0,0,0,0,0,6.795017,36.20147,6722.274,0,44.94401,-6.795017,25000000
408.6,-6.809905,-6720.432,39.2118,0,0,0,0,0,6.809905,36.28079,6720.432,0,45.06841,-6.809905,25000000
409.4,-6.823118,-6722.493,39.22382,0,0,0,0,0,6.823118,36.35119,6722.493,0,45.17896-6.8231182.50E+07409.5-6.825031-6725.75139.24283000006.82503236.361386725.75045.19497-6.8250312.50E+07409.6-6.826944-6728.37839.25816000006.82694436.371576728.378045.21099-6.8269442.50E+07409.7-6.828439-6728.70739.26008000006.82843936.379546728.707045.2235-6.8284392.50E+07409.8-6.829755-6725.51439.24145000006.82975536.386556725.514045.23452-6.8297552.50E+07409.9-6.831489-6725.69539.2425000006.83148936.395786725.695045.24904-6.8314892.50E+07410-6.833223-6726.75239.24867000006.83322236.405026726.751045.26357-6.8332232.50E+07410.1-6.835135-6729.67739.26574000006.83513536.415216729.677045.27959-6.8351352.50E+07410.2-6.83681-6730.99339.27342000006.8368136.424136730.993045.29363-6.836812.50E+07410.3-6.838424-6731.14439.2743000006.83842436.432736731.144045.30715-6.8384242.50E+07410.4-6.839859-6729.58539.2652000006.83985936.440386729.584045.31918-6.8398592.50E+07410.5-6.841653-6730.25739.26912000006.84165336.449946730.257045.33422-6.8416532.50E+07410.6-6.843148-6730.59239.27108000006.84314836.45796730.592045.34675-6.8431482.50E+07410.7-6.844942-6731.7539.27784000006.84494236.467466731.75045.36179-6.8449422.50E+07410.8-6.846675-6733.46239.28782000006.84667536.476696733.461045.37633-6.8466752.50E+07410.9-6.848409-6734.41539.29338000006.84840836.485936734.415045.39087-6.8484092.50E+07411-6.849844-6733.8439.29003000006.84984436.493576733.84045.40291-6.8498442.50E+07411.1-6.851638-6734.0639.29131000006.85163836.503136734.06045.41796-6.8516382.49E+07411.2-6.853192-6734.71439.29512000006.85319236.511416734.714045.431-6.8531922.49E+07411.3-6.854986-6735.05139.29709000006.85498636.520976735.051045.44606-6.8549862.49E+07411.4-6.85672-6736.87739.30775000006.8567236.530216736.877045.46061-6.856722.49E+07411.5-6.858453-6738.0139.31436000006.85845336.539446738.01045.47516-6.8584532.49E+07411.6-6.860009-6737.53339.31157000006.86000936.547736737.533045.48822-6.8600092.49E+07411.7-6.861683-6737.04239.30871000006.86168236.556656737.042045.50228-6.8616832.49E+07411.8-6.863296-6737.86839.31353000006.86329636.565246737.868045.51583-6.8632962.49E+07411.9-6.865031-6737.96139.31407000006.86503136.574496737.96045.5304-6.8650312.49E+07412-6.866585-6737.45839.31114000006.86658536.582766737.458045.54345-6.8665852.49E+07412.1-6.868259-6737.79939.31313000006.86825936.591686737.799045.55752-6.8682592.49E+07412.2-6.869933-6738.9939.32008000006.86993336.60066738.99045.57158-6.8699332.49E+07412.3-6.871548-6738.59639.31778000006.87154836.60926738.596045.58515-6.8715482.49E+07412.4-6.873341-6740.06539.32635000006.87334136.618766740.065045.60022-6.8733412.49E+07412.5-6.875015-6740.50239.3289000006.87501536.627686740.502045.6143-6.8750152.49E+07412.6-6.87657-6740.47639.32875000006.8765736.635966740.476045.62737-6.876572.49E+07412.7-6.878244-6739.51739.32315000006.87824436.644886739.517045.64145-6.8782442.49E+07412.8-6.880038-6741.65539.33562000006.88003836.654446741.655045.65653-6.8800382.49E+07412.9-6.881712-6742.25739.33914000006.88171236.663366742.257045.67061-6.8817122.49E+07413-6.883386-6743.19939.34463000006.88338636.672286743.199045.6847-6.8833862.49E+07413.1-6.884761-6740.46339.32867000006.88476136.67966740.463045.69626-6.8847612.49E+07413.2-6.886675-6742.82539.34246000006.88667536.68986742.825045.71237-6.8866752.49E+07413.3-6.888408-6744.40339.35166000006.88840836.699036744.403045.72695-6.8884082.49E+07413.4-6.890142-6745.44739.35775000006.89014136.708276745.447045.74154-6.8901422.49E+07413.5-6.891518-6743.90539.34876000006.89151736.71566743.905045.75312-6.8915182.49E+07413.6-6.893192-6743.39639.34579000006.89319136.724516743.396045.76722-6.8931922.49E+07413.7-6.894866-6744.29139.35101000006.89486536.733436744.291045.78131-6.8948662.49E+07413.8-6.896719-6746.91739.36633000006.89671936.743316746.917045.79693-6.8967192.49E+07413.9-6.898274-6746.66939.36488000006.89827436.751596746.669045.81002-6.8982742.49E+07414-6.900007-6747.42839.36931000006.90000736.760836747.428045.82462-6.9000072.49E+07414.1-6.901622-6747.37439.36899000006.90162236.769436747.374045.83823-6.9016222.49E+07414.2-6.903296-6747.15139.36769000006.90329636.778356747.151045.85233-6.9032962.49E+07414.3-6.90485-6747.1339.36757000006.9048536.786636747.13045.86543-6.904852.49E+07414.4-6.906704-6748.23839.37403000006.90670436.79656748.238045.88106-6.9067042.49E+07414.5-6.908318-6749.52839.38156000006.90831836.80516749.527045.89466-6.9083182.49E+07414.6-6.910052-6750.2939.38601000006.91005236.814346750.291045.90928-6.9100522.49E+07414.7-6.911606-6749.96139.38409000006.91160636.822626749.961045.92238-6.9116062.49E+07414.8-6.913221-6749.18439.37956000006.91322136.831236749.184045.93601-6.9132212.49E+07414.9-6.914895-6750.30639.3861000006.91489636.840156750.306045.95013-6.9148952.49E+07415-6.916689-6750.44839.38693000006.91668936.84976750.448045.96526-6.9166892.49E+07415.1-6.918363-6752.05239.39629000006.91836336.858626752.052045.97938-6.9183632.49E+07415.2-6.920037-6752.64939.39977000006.92003736.867546752.649045.99351-6.9200372.49E+07415.3-6.921651-6752.6439.39972000006.92165136.876146752.64046.00713-6.9216512.49E+07415.4-6.923206-6750.89939.38956000006.92320636.884426750.899046.02026-6.9232062.49E+07415.5-6.92494-6751.48639.39299000006.9249436.893666751.486046.03489-6.924942.49E+07415.6-6.926614-6750.56139.38759000006.92661436.902586750.562046.04903-6.9266142.49E+07415.7-6.928407-6752.38539.39824000006.92840736.912136752.385046.06417-6.9284072.49E+07415.8-6.930081-6752.64439.39975000006.93008136.921056752.645046.07831-6.9300812.49E+07415.9-6.931636-6750.7939.38893000006.93163636.929336750.79046.09144-6.9316362.48E+07416-6.93319-6749.58539.3819000006.9331936.937616749.585046.10457-6.933192.48E+07416.1-6.934924-6749.92539.38388000006.93492436.946856749.925046.11922-6.9349242.48E+07416.2-6.936598-6751.00639.39019000006.93659836.955776751.006046.13337-6.9365982.48E+07416.3-6.938392-6752.12539.39671000006.93839236.965336752.125046.14853-6.9383922.48E+07416.4-6.939946-6751.07739.3906000006.93994636.973616751.078046.16166-6.9399462.48E+07416.5-6.94162-6751.78639.39473000006.9416236.982536751.786046.17582-6.941622.48E+07416.6-6.943235-6752.1639.39692000006.94323536.991136752.16046.18947-6.9432352.48E+07416.7-6.944969-6752.23639.39736000006.94496937.000376752.236046.20413-6.9449692.48E+07416.8-6.946583-6752.95939.40158000006.94658337.008976752.958046.21778-6.9465832.48E+07416.9-6.948317-6752.88439.40115000006.94831737.01826752.884046.23244-6.9483172.48E+07417-6.950051-6753.62539.40547000006.95005137.027446753.625046.24712-6.9500512.48E+07417.1-6.951845-6755.32539.41539000006.95184537.0376755.325046.26229-6.9518452.48E+07417.2-6.953339-6754.1239.40836000006.95333937.044966754.12046.27493-6.9533392.48E+07417.3-6.954894-6753.25739.40332000006.95489437.053256753.257046.2881-6.9548942.48E+07417.4-6.956628-6754.05239.40796000006.95662937.062486754.052046.30278-6.9566282.48E+07417.5-6.958302-6753.8339.40667000006.95830237.07146753.83046.31695-6.9583022.48E+07417.6-6.959976-6755.0139.41355000006.95997737.080326755.01046.33113-6.9599762.48E+07417.7-6.96177-6756.04339.41957000006.9617737.089876756.042046.34631-6.961772.48E+07417.8-6.963325-6756.14739.42019000006.96332537.098166756.147046.35948-6.9633252.48E+07417.9-6.964938-6755.90339.41876000006.96493837.106766755.903046.37315-6.9649382.48E+07418-6.966553-6756.14539.42017000006.96655337.115366756.145046.38682-6.9665532.48E+07418.1-6.968168-6755.98239.41922000006.96816837.123966755.982046.40051-6.9681682.48E+07418.2-6.97008-6758.72739.43524000006.9700837.134156758.727046.41671-6.970082.48E+07418.3-6.971874-6760.26339.4442000006.97187437.143716760.263046.43192-6.9718742.48E+07418.4-6.973429-6760.41239.44507000006.97342937.151996760.412046.4451-6.9734292.48E+07418.5-6.974924-6759.78439.44141000006.97492437.159966759.784046.45777-6.9749242.48E+07418.6-6.976478-6759.12439.43755000006.97647837.168246759.124046.47095-6.9764782.48E+07418.7-6.978093-6759.92839.44224000006.97809337.176846759.928046.48464-6.9780932.48E+07418.8-6.980005-6761.76439.45295000006.98000537.187036761.764046.50086-6.9800052.48E+07418.9-6.981739-6763.70739.46429000006.9817437.196276763.707046.51557-6.9817392.48E+07419-6.983473-6764.57339.46935000006.98347337.205516764.573046.53028-6.9834732.48E+07419.1-6.985028-6765.17639.47287000006.98502837.213796765.176046.54347-6.9850282.48E+07419.2-6.986403-6763.24439.46159000006.98640337.221126763.244046.55514-6.9864032.48E+07419.3-6.988017-6763.3439.46215000006.98801737.229716763.34046.56884-6.9880172.48E+07419.4-6.98993-6766.04639.47794000006.98993137.239916766.046046.58508-6.989932.48E+07419.5-6.991844-6769.92439.50057000006.99184437.25016769.924046.60132-6.9918442.48E+07419.6-6.993398-6770.13939.50182000006.99339837.258386770.139046.61452-6.9933982.48E+07419.7-6.994893-6769.29539.4969000006.99489337.266356769.295046.62721-6.9948932.48E+07419.8-6.996508-6769.67939.49913000006.99650837.274956769.679046.64093-6.9965082.48E+07419.9-6.998182-6770.8239.50579000006.99818237.283876770.82046.65515-6.9981822.48E+07420-6.999975-6772.09739.51324000006.99997537.293426772.097046.67038-6.9999752.48E+07420.1-7.001829-6775.83739.53507000007.00182937.30336775.837046.68613-7.0018292.48E+07420.2-7.003503-6776.84839.54097000007.00350337.312216776.848046.70036-7.0035032.48E+07420.3-7.005177-6777.35739.54394000007.00517737.321136777.357046.71459-7.0051772.48E+07420.4-7.006672-6777.15339.54274000007.00667137.32916777.153046.72729-7.0066722.48E+07420.5-7.008166-6775.66239.53405000007.00816637.337066775.662046.73999-7.0081662.48E+07420.6-7.009781-6776.11539.53669000007.00978137.345666776.115046.75373-7.0097812.48E+07420.7-7.011634-6779.63839.55725000007.01163437.355546779.638046.76949-7.0116342.48E+07420.8-7.013368-6781.68339.56918000007.01336837.364786781.683046.78424-7.0133682.48E+07420.9-7.015042-6782.61839.57463000007.01504237.37376782.618046.79848-7.0150422.48E+07421-7.016657-6783.37239.57903000007.01665737.38236783.372046.81221-7.0166572.48E+07421.1-7.018091-6782.04339.57128000007.01809137.389946782.043046.82442-7.0180912.48E+07421.2-7.019885-6783.47839.57965000007.01988537.399496783.478046.83968-7.0198852.48E+07421.3-7.021679-6786.10739.59499000007.02167937.409056786.107046.85495-7.0216792.48E+07421.4-7.023413-6788.10739.60666000007.02341337.418296788.107046.86971-7.0234132.48E+07421.5-7.025207-6789.84739.61681000007.02520737.427856789.847046.88498-7.0252072.48E+07421.6-7.026761-6790.41739.62014000007.02676137.436136790.417046.89822-7.0267612.48E+07421.7-7.028256-6789.11339.61253000007.02825637.444096789.113046.91095-7.0282562.48E+07421.8-7.02993-6790.11439.61837000007.0299337.453016790.114046.92521-7.029932.48E+07421.9-7.031664-6790.72639.62194000007.03166337.462256790.726046.93997-7.0316642.48E+07422-7.033338-6792.65639.63321000007.03333837.471166792.656046.95424-7.0333382.48E+07422.1-7.035012-6793.8639.64022000007.03501237.480086793.86046.9685-7.0350122.48E+07422.2-7.036626-6794.93639.6465000007.03662637.488696794.936046.98226-7.0366262.48E+07422.3-7.038181-6794.60539.64457000007.0381837.496976794.605046.99551-7.0381812.48E+07422.4-7.039914-6796.1939.65382000007.03991537.50626796.19047.01029-7.0399142.48E+07422.5-7.041409-6795.77139.65138000007.04140937.514176795.771047.02303-7.0414092.48E+07422.6-7.043323-6798.48539.66721000007.04332337.524366798.485047.03935-7.0433232.48E+07422.7-7.045176-6801.08339.68237000007.04517737.534246801.083047.05516-7.0451762.48E+07422.8-7.04691-6804.22839.70072000007.0469137.543476804.228047.06994-7.046912.48E+07422.9-7.048225-6802.59439.69119000007.04822537.550486802.594047.08116-7.0482252.48E+07423-7.04978-6801.56239.68517000007.0497837.558776801.562047.09443-7.049782.48E+07423.1-7.051514-6803.64839.69734000007.05151537.5686803.648047.10923-7.0515142.48E+07423.2-7.053367-6806.48339.71387000007.05336837.577886806.482047.12504-7.0533672.48E+07423.3-7.055101-6808.74439.72707000007.05510137.587126808.744047.13984-7.0551012.48E+07423.4-7.056716-6808.49739.72563000007.05671537.595716808.497047.15362-7.0567162.48E+07423.5-7.05821-6808.57439.72608000007.05821137.603686808.574047.16639-7.058212.48E+07423.6-7.059884-6808.59739.72622000007.05988537.61266808.597047.18068-7.0598842.48E+07423.7-7.061558-6811.49739.74314000007.06155937.621526811.498047.19498-7.0615582.48E+07423.8-7.063232-6812.23839.74746000007.06323337.630446812.238047.20928-7.0632322.48E+07423.9-7.065026-6814.9839.76346000007.06502637.639996814.98047.2246-7.0650262.48E+07424-7.06676-6816.90639.7747000007.0667637.649236816.906047.23941-7.066762.48E+07424.1-7.068315-6817.70739.77937000007.06831537.657516817.707047.2527-7.0683152.48E+07424.2-7.069869-6816.31539.77125000007.0698737.665796816.315047.26598-7.0698692.48E+07424.3-7.071603-6818.77439.78559000007.07160337.675036818.774047.28081-7.0716032.48E+07424.4-7.073217-6819.15639.78782000007.07321737.683636819.156047.2946-7.0732172.48E+07424.5-7.075011-6822.6439.80815000007.07501137.693196822.64047.30994-7.0750112.48E+07424.6-7.076805-6824.64139.81983000007.07680537.702746824.641047.32528-7.0768052.48E+07424.7-7.078359-6825.55239.82514000007.0783637.711036825.552047.33858-7.0783592.48E+07424.8-7.079914-6824.21939.81736000007.07991437.719316824.219047.35187-7.0799142.48E+07424.9-7.081648-6826.24939.82921000007.08164837.728546826.249047.3667-7.0816482.48E+07425-7.083322-6826.79839.83241000007.08332237.737466826.797047.38103-7.0833222.48E+07425.1-7.084936-6828.66739.84332000007.08493637.746066828.667047.39484-7.0849362.48E+07425.2-7.08655-6829.38639.84751000007.0865537.754676829.386047.40866-7.086552.48E+07425.3-7.088284-6831.96639.86256000007.08828437.76396831.966047.4235-7.0882842.48E+07425.4-7.089899-6832.55539.866000007.08989937.77256832.555047.43732-7.0898992.48E+07425.5-7.091693-6834.4539.87706000007.09169237.782066834.45047.45268-7.0916932.48E+07425.6-7.093307-6835.65539.88409000007.09330737.790666835.655047.46651-7.0933072.48E+07425.7-7.095041-6837.65939.89578000007.09504137.79996837.659047.48135-7.0950412.48E+07425.8-7.096535-6836.23339.88746000007.09653537.807866836.233047.49416-7.0965352.48E+07425.9-7.098329-6838.68539.90177000007.0983337.817426838.685047.50953-7.0983292.48E+07426-7.100063-6841.34439.91728000007.10006337.826656841.344047.52438-7.1000632.48E+07426.1-7.101737-6842.87139.92619000007.10173737.835586842.872047.53873-7.1017372.48E+07426.2-7.103112-6842.69239.92514000007.10311237.84296842.691047.55051-7.1031122.48E+07426.3-7.104786-6841.96339.92089000007.10478637.851826841.963047.56486-7.1047862.48E+07426.4-7.10664-6845.10339.93921000007.1066437.861696845.103047.58076-7.106642.48E+07426.5-7.108434-6846.83739.94933000007.10843437.871256846.837047.59613-7.1084342.48E+07426.6-7.110048-6848.50439.95906000007.11004837.879856848.504047.60998-7.1100482.48E+07426.7-7.111602-6848.27839.95774000007.11160237.888136848.278047.62331-7.1116022.48E+07426.8-7.113217-6850.3239.96965000007.11321637.896736850.32047.63716-7.1132172.48E+07426.9-7.115011-6851.65439.97744000007.11501137.906296851.654047.65255-7.1150112.48E+07427-7.116625-6854.33339.99307000007.11662537.914896854.333047.6664-7.1166252.48E+07427.1-7.118359-6854.55339.99435000007.11835937.924136854.553047.68128-7.1183592.48E+07427.2-7.120033-6855.94340.00246000007.12003337.933046855.943047.69565-7.1200332.48E+07427.3-7.121587-6854.63639.99484000007.12158737.941336854.636047.70899-7.1215872.48E+07427.4-7.123261-6856.91440.00813000007.12326137.950246856.914047.72336-7.1232612.48E+07427.5-7.124876-6857.23940.01003000007.12487637.958856857.239047.73723-7.1248762.48E+07427.6-7.126729-6861.08940.03249000007.12672937.968726861.089047.75314-7.1267292.48E+07427.7-7.128344-6861.77640.0365000007.12834337.977326861.776047.76701-7.1283442.48E+07427.8-7.130018-6863.79540.04828000007.13001737.986246863.795047.78139-7.1300182.48E+07427.9-7.131512-6863.6840.04761000007.13151237.994216863.68047.79423-7.1315122.48E+07428-7.133246-6863.77740.04817000007.13324638.003446863.777047.80913-7.1332462.48E+07428.1-7.13486-6864.76540.05394000007.13486138.012046864.765047.82301-7.134862.48E+07428.2-7.136774-6868.1640.07375000007.13677438.022246868.16047.83945-7.1367742.48E+07428.3-7.138448-6870.38640.08673000007.13844838.031156870.386047.85384-7.1384482.48E+07428.4-7.140003-6871.38440.09256000007.14000338.039446871.384047.86722-7.1400032.48E+07428.5-7.141557-6872.07940.09661000007.14155738.047726872.079047.88057-7.1415572.48E+07428.6-7.143231-6872.60640.09969000007.14323138.056646872.605047.89497-7.1432312.48E+07428.7-7.144845-6873.88240.,,