File: bamboo-r-18mm.csv
Time sec,Extension mm,Load kgf,Compressive stress MPa,Cycle Count ,Total Cycle Count ,Repetitions Count ,Marked Data ,PIP Count ,Compressive extension mm,Compressive strain %,Compressive load kgf,Displacement (Strain 1) mm,True strain %,Corrected Position mm,True stress Pa
0,-9.006092,-6606.691,38.54815,0,0,0,0,0,9.006091,47.98131,6606.691,0,65.3567,-9.006092,20100000
0.2,-9.007049,-6609.637,38.56534,0,0,0,0,0,9.00705,47.98641,6609.637,0,65.36652,-9.007049,20100000
0.378,-9.011175,-6657.269,38.84326,0,0,0,0,0,9.011174,48.00839,6657.269,0,65.40878,-9.011175,20200000
0.56,-9.01506,-6706.711,39.13174,0,0,0,0,0,9.01506,48.02909,6706.711,0,65.44861,-9.01506,20300000
0.7600001,-9.018888,-6752.996,39.40179,0,0,0,0,0,9.018888,48.04948,6752.996,0,65.48785,-9.018888,20500000
0.9600001,-9.021757,-6786.808,39.59908,0,0,0,0,0,9.021757,48.06477,6786.808,0,65.51728,-9.021757,20600000
1.16,-9.025345,-6826.975,39.83344,0,0,0,0,0,9.025345,48.08388,6826.975,0,65.55409,-9.025345,20700000
1.36,-9.028872,-6869.217,40.07991,0,0,0,0,0,9.028872,48.10268,6869.217,0,65.5903,-9.028872,20800000
1.56,-9.031862,-6902.166,40.27216,0,0,0,0,0,9.031861,48.1186,6902.167,0,65.62099,-9.031862,20900000
1.76,-9.03533,-6938.291,40.48294,0,0,0,0,0,9.03533,48.13708,6938.292,0,65.65661,-9.03533,21000000
1.96,-9.038798,-6976.915,40.7083,0,0,0,0,0,9.038797,48.15556,6976.915,0,65.69224,-9.038798,21100000
2.16,-9.041787,-7011.05,40.90747,0,0,0,0,0,9.041787,48.17148,7011.05,0,65.72296,-9.041787,21200000
2.36,-9.045195,-7046.91,41.1167,0,0,0,0,0,9.045195,48.18964,7046.911,0,65.758,-9.045195,21300000
2.56,-9.048723,-7084.674,41.33704,0,0,0,0,0,9.048722,48.20843,7084.674,0,65.79428,-9.048723,21400000
2.76,-9.051951,-7120.056,41.54349,0,0,0,0,0,9.051951,48.22563,7120.056,0,65.8275,-9.051951,21500000
2.96,-9.055359,-7156.187,41.7543,0,0,0,0,0,9.055359,48.24379,7156.187,0,65.86257,-9.055359,21600000
3.16,-9.058648,-7190.229,41.95293,0,0,0,0,0,9.058647,48.26131,7190.229,0,65.89643,-9.058648,21700000
3.36,-9.061996,-7224.796,42.15462,0,0,0,0,0,9.061996,48.27914,7224.796,0,65.93091,-9.061996,21800000
3.56,-9.065344,-7259.867,42.35925,0,0,0,0,0,9.065344,48.29698,7259.867,0,65.96541,-9.065344,21900000
3.76,-9.068513,-7294.436,42.56095,0,0,0,0,0,9.068513,48.31387,7294.437,0,65.99807,-9.068513,22000000
3.96,-9.07204,-7321.727,42.72018,0,0,0,0,0,9.07204,48.33266,7321.727,0,66.03443,-9.07204,22100000
4.16,-9.075449,-7356.726,42.92439,0,0,0,0,0,9.075449,48.35082,7356.726,0,66.06958,-9.075449,22200000
4.36,-9.078737,-7389.122,43.11341,0,0,0,0,0,9.078737,48.36834,7389.122,0,66.10351,-9.078737,22300000
4.56,-9.082204,-7425.887,43.32792,0,0,0,0,0,9.082204,48.38681,7425.887,0,66.13929,-9.082204,22400000
4.76,-9.085313,-7456.848,43.50857,0,0,0,0,0,9.085313,48.40337,7456.848,0,66.17139,-9.085313,22400000
4.96,-9.088782,-7492.702,43.71777,0,0,0,0,0,9.088781,48.42185,7492.702,0,66.20721,-9.088782,22500000
5.16,-9.09201,-7525.621,43.90985,0,0,0,0,0,9.09201,48.43905,7525.622,0,66.24057,-9.09201,22600000
5.36,-9.095299,-7557.778,44.09747,0,0,0,0,0,9.095299,48.45657,7557.778,0,66.27455,-9.095299,22700000
5.56,-9.098647,-7589.84,44.28454,0,0,0,0,0,9.098647,48.47441,7589.84,0,66.30916,-9.098647,22800000
5.76,-9.102114,-7624.685,44.48785,0,0,0,0,0,9.102114,48.49288,7624.686,0,66.34502,-9.102114,22900000
5.96,-9.105284,-7654.129,44.65965,0,0,0,0,0,9.105284,48.50977,7654.129,0,66.37781,-9.105284,23000000
6.16,-9.108691,-7686.584,44.84902,0,0,0,0,0,9.108691,48.52792,7686.584,0,66.41307,-9.108691,23100000
6.36,-9.112039,-7721.122,45.05053,0,0,0,0,0,9.11204,48.54576,7721.122,0,66.44773,-9.112039,23200000
6.56,-9.115149,-7751.056,45.22519,0,0,0,0,0,9.115149,48.56233,7751.056,0,66.47994,-9.115149,23300000
6.76,-9.118497,-7783.291,45.41328,0,0,0,0,0,9.118497,48.58017,7783.292,0,66.51462,-9.118497,23400000
6.96,-9.122144,-7819.772,45.62613,0,0,0,0,0,9.122144,48.59959,7819.772,0,66.55241,-9.122144,23500000
7.16,-9.125193,-7849.51,45.79964,0,0,0,0,0,9.125194,48.61584,7849.51,0,66.58403,-9.125193,23500000
7.36,-9.128721,-7882.389,45.99149,0,0,0,0,0,9.128721,48.63464,7882.389,0,66.62061,-9.128721,23600000
7.56,-9.13201,-7914.457,46.17859,0,0,0,0,0,9.13201,48.65216,7914.457,0,66.65472,-9.13201,23700000
7.76,-9.135358,-7946.541,46.36579,0,0,0,0,0,9.135358,48.66999,7946.541,0,66.68947,-9.135358,23800000
7.96,-9.138586,-7977.607,46.54705,0,0,0,0,0,9.138586,48.68719,7977.607,0,66.72298,-9.138586,23900000
8.160001,-9.141995,-8008.507,46.72734,0,0,0,0,0,9.141994,48.70535,8008.507,0,66.75838,-9.141995,24000000
8.360001,-9.145343,-8040.372,46.91327,0,0,0,0,0,9.145343,48.72319,8040.373,0,66.79316,-9.145343,24100000
8.56,-9.148631,-8070.26,47.08766,0,0,0,0,0,9.148631,48.74071,8070.26,0,66.82733,-9.148631,24100000
8.76,-9.151979,-8100.754,47.26558,0,0,0,0,0,9.151978,48.75854,8100.753,0,66.86213,-9.151979,24200000
8.96,-9.155446,-8132.29,47.44958,0,0,0,0,0,9.155446,48.77702,8132.291,0,66.89819,-9.155446,24300000
9.160001,-9.158556,-8160.168,47.61224,0,0,0,0,0,9.158556,48.79359,8160.167,0,66.93054,-9.158556,24400000
9.360001,-9.162023,-8190.369,47.78846,0,0,0,0,0,9.162024,48.81206,8190.369,0,66.96662,-9.162023,24500000
9.56,-9.165492,-8222.534,47.97613,0,0,0,0,0,9.165492,48.83054,8222.534,0,67.00273,-9.165492,24500000
9.76,-9.168481,-8249.005,48.13058,0,0,0,0,0,9.168482,48.84647,8249.005,0,67.03386,-9.168481,24600000
9.96,-9.172008,-8278.964,48.30538,0,0,0,0,0,9.172009,48.86525,8278.964,0,67.0706,-9.172008,24700000
10.16,-9.175536,-8311.328,48.49422,0,0,0,0,0,9.175536,48.88405,8311.328,0,67.10736,-9.175536,24800000
10.36,-9.178526,-8337.603,48.64753,0,0,0,0,0,9.178526,48.89998,8337.604,0,67.13853,-9.178526,24900000
10.56,-9.181993,-8361.298,48.78578,0,0,0,0,0,9.181993,48.91845,8361.298,0,67.17468,-9.181993,24900000
10.76,-9.185461,-8392.427,48.96741,0,0,0,0,0,9.185461,48.93693,8392.427,0,67.21086,-9.185461,25000000
10.96,-9.18851,-8416.463,49.10766,0,0,0,0,0,9.18851,48.95317,8416.464,0,67.24267,-9.18851,25100000
11.16,-9.191918,-8444.987,49.27407,0,0,0,0,0,9.191918,48.97133,8444.986,0,67.27826,-9.191918,25100000
11.36,-9.195505,-8476.832,49.45988,0,0,0,0,0,9.195505,48.99044,8476.832,0,67.31571,-9.195505,25200000
11.56,-9.198734,-8503.208,49.61378,0,0,0,0,0,9.198734,49.00764,8503.208,0,67.34944,-9.198734,25300000
11.76,-9.201843,-8528.032,49.75863,0,0,0,0,0,9.201843,49.0242,8528.032,0,67.38193,-9.201843,25400000
11.96,-9.205551,-8559.68,49.94328,0,0,0,0,0,9.205551,49.04396,8559.68,0,67.42068,-9.205551,25400000
12.16,-9.2086,-8584.676,50.08913,0,0,0,0,0,9.208599,49.0602,8584.676,0,67.45256,-9.2086,25500000
12.36,-9.211768,-8608.599,50.22871,0,0,0,0,0,9.211768,49.07708,8608.6,0,67.48571,-9.211768,25600000
12.56,-9.215476,-8640.089,50.41245,0,0,0,0,0,9.215476,49.09684,8640.089,0,67.52451,-9.215476,25700000
12.76,-9.218824,-8667.843,50.57438,0,0,0,0,0,9.218824,49.11467,8667.843,0,67.55956,-9.218824,25700000
12.96,-9.221933,-8689.491,50.70069,0,0,0,0,0,9.221933,49.13124,8689.491,0,67.59212,-9.221933,25800000
13.16,-9.225401,-8716.056,50.8557,0,0,0,0,0,9.225401,49.14971,8716.057,0,67.62844,-9.225401,25900000
13.36,-9.228688,-8741.925,51.00663,0,0,0,0,0,9.228688,49.16722,8741.926,0,67.66288,-9.228688,25900000
13.56,-9.231917,-8765.35,51.1433,0,0,0,0,0,9.231917,49.18443,8765.35,0,67.69674,-9.231917,26000000
13.76,-9.235265,-8789.528,51.28438,0,0,0,0,0,9.235266,49.20227,8789.527,0,67.73184,-9.235265,26100000
13.96,-9.238973,-8820.14,51.46299,0,0,0,0,0,9.238974,49.22202,8820.14,0,67.77074,-9.238973,26100000
14.16,-9.241783,-8838.94,51.57269,0,0,0,0,0,9.241783,49.23699,8838.94,0,67.80022,-9.241783,26200000
14.36,-9.24543,-8865.965,51.73037,0,0,0,0,0,9.24543,49.25642,8865.966,0,67.83851,-9.24543,26200000
14.56,-9.248838,-8891.803,51.88112,0,0,0,0,0,9.248837,49.27457,8891.803,0,67.87429,-9.248838,26300000
14.76,-9.251947,-8912.32,52.00084,0,0,0,0,0,9.251947,49.29114,8912.32,0,67.90695,-9.251947,26400000
14.96,-9.255295,-8932.862,52.12069,0,0,0,0,0,9.255295,49.30898,8932.862,0,67.94214,-9.255295,26400000
15.16,-9.258703,-8956.005,52.25572,0,0,0,0,0,9.258702,49.32713,8956.005,0,67.97796,-9.258703,26500000
15.36,-9.261812,-8976.3,52.37414,0,0,0,0,0,9.261812,49.3437,8976.3,0,68.01065,-9.261812,26500000
15.56,-9.265221,-9000.403,52.51477,0,0,0,0,0,9.265221,49.36186,9000.403,0,68.04651,-9.265221,26600000
15.76,-9.268867,-9026.114,52.66478,0,0,0,0,0,9.268867,49.38129,9026.113,0,68.08488,-9.268867,26700000
15.96,-9.271976,-9046.224,52.78213,0,0,0,0,0,9.271976,49.39785,9046.225,0,68.11761,-9.271976,26700000
16.16,-9.275384,-9069.284,52.91668,0,0,0,0,0,9.275384,49.416,9069.284,0,68.15349,-9.275384,26800000
16.36,-9.278553,-9088.63,53.02955,0,0,0,0,0,9.278553,49.43289,9088.63,0,68.18688,-9.278553,26800000
16.56,-9.281901,-9111.134,53.16086,0,0,0,0,0,9.281901,49.45073,9111.135,0,68.22216,-9.281901,26900000
16.76,-9.285309,-9133.464,53.29115,0,0,0,0,0,9.28531,49.46888,9133.464,0,68.25809,-9.285309,26900000
16.96,-9.288478,-9153.378,53.40734,0,0,0,0,0,9.288479,49.48577,9153.378,0,68.29151,-9.288478,27000000
17.16,-9.292125,-9176.143,53.54017,0,0,0,0,0,9.292126,49.5052,9176.144,0,68.32998,-9.292125,27000000
17.36,-9.295295,-9196.566,53.65932,0,0,0,0,0,9.295295,49.52208,9196.565,0,68.36342,-9.295295,27100000
17.56,-9.298822,-9216.996,53.77853,0,0,0,0,0,9.298821,49.54087,9216.996,0,68.40065,-9.298822,27100000
17.76,-9.30217,-9238.396,53.90339,0,0,0,0,0,9.30217,49.55871,9238.396,0,68.43601,-9.30217,27200000
17.96,-9.30522,-9254.674,53.99838,0,0,0,0,0,9.30522,49.57496,9254.675,0,68.46823,-9.30522,27200000
18.16,-9.308687,-9275.954,54.12254,0,0,0,0,0,9.308687,49.59343,9275.954,0,68.50487,-9.308687,27300000
18.36,-9.312095,-9293.971,54.22766,0,0,0,0,0,9.312095,49.61159,9293.971,0,68.54089,-9.312095,27300000
18.56,-9.315384,-9311.803,54.3317,0,0,0,0,0,9.315384,49.62911,9311.803,0,68.57567,-9.315384,27400000
18.76,-9.318792,-9318.832,54.37272,0,0,0,0,0,9.318792,49.64727,9318.832,0,68.61173,-9.318792,27400000
18.96,-9.32214,-9325.06,54.40906,0,0,0,0,0,9.322141,49.6651,9325.061,0,68.64716,-9.32214,27400000
19.16,-9.325368,-9337.719,54.48292,0,0,0,0,0,9.325368,49.6823,9337.719,0,68.68133,-9.325368,27400000
19.36,-9.328836,-9308.993,54.3153,0,0,0,0,0,9.328836,49.70078,9308.992,0,68.71806,-9.328836,27300000
19.56,-9.332065,-9317.379,54.36424,0,0,0,0,0,9.332066,49.71798,9317.379,0,68.75227,-9.332065,27300000
19.76,-9.335233,-9326.705,54.41865,0,0,0,0,0,9.335234,49.73486,9326.705,0,68.78585,-9.335233,27400000
19.96,-9.338761,-9341.061,54.50241,0,0,0,0,0,9.338761,49.75366,9341.061,0,68.82324,-9.338761,27400000
20.16,-9.34211,-9355.182,54.5848,0,0,0,0,0,9.34211,49.7715,9355.182,0,68.85875,-9.34211,27400000
20.36,-9.345279,-9365.669,54.646,0,0,0,0,0,9.345279,49.78838,9365.669,0,68.89237,-9.345279,27400000
20.56,-9.348926,-9382.265,54.74283,0,0,0,0,0,9.348926,49.80781,9382.265,0,68.93107,-9.348926,27500000
20.76,-9.352035,-9393.635,54.80917,0,0,0,0,0,9.352035,49.82437,9393.635,0,68.96408,-9.352035,27500000
20.96,-9.355263,-9407.12,54.88785,0,0,0,0,0,9.355264,49.84157,9407.12,0,68.99837,-9.355263,27500000
21.16,-9.358611,-9421.63,54.97251,0,0,0,0,0,9.358611,49.85941,9421.63,0,69.03393,-9.358611,27600000
21.36,-9.362199,-9436.788,55.06096,0,0,0,0,0,9.3622,49.87852,9436.788,0,69.07206,-9.362199,27600000
21.56,-9.365308,-9443.64,55.10093,0,0,0,0,0,9.365307,49.89508,9443.64,0,69.1051,-9.365308,27600000
21.76,-9.368596,-9455.901,55.17247,0,0,0,0,0,9.368596,49.91261,9455.901,0,69.14008,-9.368596,27600000
21.96,-9.372184,-9470.844,55.25967,0,0,0,0,0,9.372184,49.93172,9470.845,0,69.17825,-9.372184,27700000
22.16,-9.375352,-9482.727,55.32899,0,0,0,0,0,9.375351,49.9486,9482.727,0,69.21196,-9.375352,27700000
22.36,-9.378521,-9493.254,55.39042,0,0,0,0,0,9.378521,49.96548,9493.254,0,69.24571,-9.378521,27700000
22.56,-9.382109,-9509.259,55.4838,0,0,0,0,0,9.382109,49.9846,9509.259,0,69.28392,-9.382109,27800000
22.76,-9.385457,-9522.532,55.56124,0,0,0,0,0,9.385457,50.00243,9522.531,0,69.31959,-9.385457,27800000
22.96,-9.388506,-9531.65,55.61445,0,0,0,0,0,9.388506,50.01868,9531.65,0,69.35209,-9.388506,27800000
23.16,-9.392153,-9546.359,55.70027,0,0,0,0,0,9.392153,50.03811,9546.359,0,69.39096,-9.392153,27800000
23.36,-9.395622,-9560.661,55.78372,0,0,0,0,0,9.395621,50.05659,9560.661,0,69.42796,-9.395622,27900000
23.56,-9.398431,-9566.091,55.8154,0,0,0,0,0,9.398431,50.07156,9566.091,0,69.45793,-9.398431,27900000
23.76,-9.402138,-9580.722,55.90078,0,0,0,0,0,9.402138,50.0913,9580.723,0,69.49749,-9.402138,27900000
23.96,-9.405307,-9592.346,55.96859,0,0,0,0,0,9.405307,50.10819,9592.346,0,69.53133,-9.405307,27900000
24.16,-9.408596,-9600.625,56.0169,0,0,0,0,0,9.408595,50.12571,9600.625,0,69.56645,-9.408596,27900000
24.36,-9.412302,-9605.472,56.04518,0,0,0,0,0,9.412303,50.14546,9605.472,0,69.60606,-9.412302,27900000
24.56,-9.415532,-9610.241,56.073,0,0,0,0,0,9.415531,50.16266,9610.24,0,69.64057,-9.415532,27900000
24.76,-9.41858,-9606.369,56.05041,0,0,0,0,0,9.41858,50.17891,9606.369,0,69.67317,-9.41858,27900000
24.96,-9.422048,-9612.551,56.08649,0,0,0,0,0,9.422048,50.19738,9612.552,0,69.71025,-9.422048,27900000
25.16,-9.425457,-9623.032,56.14763,0,0,0,0,0,9.425456,50.21554,9623.031,0,69.74673,-9.425457,28000000
25.36,-9.428505,-9628.846,56.18156,0,0,0,0,0,9.428506,50.23178,9628.847,0,69.77936,-9.428505,28000000
25.56,-9.431973,-9636.981,56.22902,0,0,0,0,0,9.431973,50.25026,9636.98,0,69.81648,-9.431973,28000000
25.76,-9.43562,-9649.138,56.29996,0,0,0,0,0,9.43562,50.26969,9649.139,0,69.85555,-9.43562,28000000
25.96,-9.43873,-9655.354,56.33623,0,0,0,0,0,9.438729,50.28625,9655.354,0,69.88887,-9.43873,28000000
26.16,-9.441958,-9661.858,56.37417,0,0,0,0,0,9.441957,50.30345,9661.857,0,69.92347,-9.441958,28000000
26.36,-9.445485,-9671.825,56.43233,0,0,0,0,0,9.445485,50.32224,9671.825,0,69.96129,-9.445485,28000000
26.56,-9.448594,-9678.061,56.46871,0,0,0,0,0,9.448594,50.33881,9678.061,0,69.99464,-9.448594,28000000
26.76,-9.451823,-9686.286,56.5167,0,0,0,0,0,9.451823,50.35601,9686.286,0,70.02929,-9.451823,28100000
26.96,-9.45547,-9696.518,56.5764,0,0,0,0,0,9.455469,50.37544,9696.518,0,70.06843,-9.45547,28100000
27.16,-9.458818,-9706.336,56.6337,0,0,0,0,0,9.458817,50.39328,9706.337,0,70.10438,-9.458818,28100000
27.36,-9.461928,-9708.811,56.64814,0,0,0,0,0,9.461927,50.40984,9708.812,0,70.13778,-9.461928,28100000
27.56,-9.465634,-9720.261,56.71494,0,0,0,0,0,9.465634,50.42959,9720.261,0,70.17761,-9.465634,28100000
27.76,-9.468743,-9725.509,56.74556,0,0,0,0,0,9.468743,50.44616,9725.51,0,70.21103,-9.468743,28100000
27.96,-9.472032,-9726.568,56.75174,0,0,0,0,0,9.472032,50.46368,9726.567,0,70.2464,-9.472032,28100000
28.16,-9.47532,-9732.824,56.78824,0,0,0,0,0,9.47532,50.48119,9732.824,0,70.28177,-9.47532,28100000
28.36,-9.478789,-9741.27,56.83752,0,0,0,0,0,9.478788,50.49967,9741.27,0,70.31909,-9.478789,28100000
28.56,-9.482077,-9747.623,56.87459,0,0,0,0,0,9.482077,50.51719,9747.623,0,70.35449,-9.482077,28100000
28.76,-9.485425,-9753.443,56.90855,0,0,0,0,0,9.485425,50.53503,9753.442,0,70.39054,-9.485425,28100000
28.96,-9.488833,-9761.712,56.95679,0,0,0,0,0,9.488833,50.55318,9761.712,0,70.42726,-9.488833,28200000
29.16,-9.492062,-9765.763,56.98043,0,0,0,0,0,9.492062,50.57039,9765.763,0,70.46205,-9.492062,28200000
29.36,-9.49541,-9773.205,57.02385,0,0,0,0,0,9.49541,50.58823,9773.205,0,70.49814,-9.49541,28200000
29.56,-9.498639,-9778.116,57.05251,0,0,0,0,0,9.498639,50.60543,9778.116,0,70.53296,-9.498639,28200000
29.76,-9.501987,-9782.728,57.07941,0,0,0,0,0,9.501987,50.62326,9782.728,0,70.56908,-9.501987,28200000
29.96,-9.505574,-9791.218,57.12895,0,0,0,0,0,9.505574,50.64238,9791.218,0,70.6078,-9.505574,28200000
30.16,-9.508683,-9794.578,57.14856,0,0,0,0,0,9.508683,50.65894,9794.578,0,70.64136,-9.508683,28200000
30.36,-9.512211,-9802.83,57.1967,0,0,0,0,0,9.512211,50.67773,9802.83,0,70.67946,-9.512211,28200000
30.56,-9.51514,-9804.135,57.20432,0,0,0,0,0,9.51514,50.69334,9804.135,0,70.7111,-9.51514,28200000
30.76,-9.518788,-9809.338,57.23468,0,0,0,0,0,9.518787,50.71278,9809.338,0,70.75053,-9.518788,28200000
30.96,-9.521956,-9813.218,57.25732,0,0,0,0,0,9.521955,50.72965,9813.218,0,70.78477,-9.521956,28200000
31.16,-9.525304,-9805.384,57.21161,0,0,0,0,0,9.525304,50.74749,9805.384,0,70.82098,-9.525304,28200000
31.36,-9.528773,-9810.875,57.24364,0,0,0,0,0,9.528772,50.76597,9810.875,0,70.85852,-9.528773,28200000
31.56,-9.532061,-9815.558,57.27097,0,0,0,0,0,9.532061,50.78349,9815.558,0,70.8941,-9.532061,28200000
31.76,-9.535289,-9817.774,57.2839,0,0,0,0,0,9.53529,50.80069,9817.774,0,70.92906,-9.535289,28200000
31.96,-9.538757,-9823.415,57.31681,0,0,0,0,0,9.538757,50.81916,9823.415,0,70.96662,-9.538757,28200000
32.16,-9.542046,-9827.228,57.33906,0,0,0,0,0,9.542046,50.83669,9827.228,0,71.00225,-9.542046,28200000
32.36,-9.545335,-9831.327,57.36297,0,0,0,0,0,9.545335,50.85421,9831.326,0,71.03789,-9.545335,28200000
32.56,-9.548801,-9837.037,57.39629,0,0,0,0,0,9.548801,50.87268,9837.037,0,71.07548,-9.548801,28200000
32.76,-9.552031,-9840.788,57.41818,0,0,0,0,0,9.552031,50.88988,9840.788,0,71.11051,-9.552031,28200000
32.96,-9.555319,-9844.678,57.44087,0,0,0,0,0,9.555319,50.9074,9844.678,0,71.14618,-9.555319,28200000
33.16,-9.558906,-9851.109,57.4784,0,0,0,0,0,9.558907,50.92651,9851.108,0,71.18513,-9.558906,28200000
33.36,-9.562015,-9853.313,57.49126,0,0,0,0,0,9.562015,50.94307,9853.313,0,71.21888,-9.562015,28200000
33.56,-9.565304,-9856.549,57.51014,0,0,0,0,0,9.565305,50.9606,9856.549,0,71.25461,-9.565304,28200000
33.76,-9.568771,-9863.509,57.55075,0,0,0,0,0,9.568771,50.97907,9863.51,0,71.29228,-9.568771,28200000
33.96,-9.572,-9865.728,57.56369,0,0,0,0,0,9.572001,50.99627,9865.728,0,71.32739,-9.572,28200000
34.16,-9.575408,-9866.175,57.5663,0,0,0,0,0,9.575407,51.01442,9866.175,0,71.36443,-9.575408,28200000
34.36,-9.578757,-9870.209,57.58984,0,0,0,0,0,9.578757,51.03227,9870.209,0,71.40087,-9.578757,28200000
34.56,-9.582284,-9876.369,57.62579,0,0,0,0,0,9.582284,51.05106,9876.369,0,71.43924,-9.582284,28200000
34.76,-9.585333,-9875.919,57.62317,0,0,0,0,0,9.585333,51.0673,9875.92,0,71.47243,-9.585333,28200000
34.96,-9.588682,-9878.033,57.63549,0,0,0,0,0,9.588681,51.08514,9878.033,0,71.5089,-9.588682,28200000
35.16,-9.592149,-9884.368,57.67245,0,0,0,0,0,9.59215,51.10362,9884.368,0,71.54668,-9.592149,28200000
35.36,-9.595319,-9886.016,57.68208,0,0,0,0,0,9.59532,51.12051,9886.017,0,71.58123,-9.595319,28200000
35.56,-9.598546,-9889.059,57.69983,0,0,0,0,0,9.598546,51.1377,9889.059,0,71.61641,-9.598546,28200000
35.76,-9.602373,-9897.789,57.75077,0,0,0,0,0,9.602373,51.15809,9897.789,0,71.65814,-9.602373,28200000
35.96,-9.605482,-9899.033,57.75803,0,0,0,0,0,9.605482,51.17465,9899.033,0,71.69205,-9.605482,28200000
36.16,-9.608531,-9899.006,57.75787,0,0,0,0,0,9.608531,51.1909,9899.006,0,71.72533,-9.608531,28200000
36.36,-9.612179,-9905.638,57.79656,0,0,0,0,0,9.612179,51.21033,9905.638,0,71.76516,-9.612179,28200000
36.56,-9.615467,-9908.309,57.81214,0,0,0,0,0,9.615466,51.22784,9908.309,0,71.80106,-9.615467,28200000
36.76,-9.618397,-9905.831,57.79769,0,0,0,0,0,9.618397,51.24346,9905.831,0,71.83308,-9.618397,28200000
36.96,-9.622343,-9915.042,57.85143,0,0,0,0,0,9.622343,51.26448,9915.042,0,71.8762,-9.622343,28200000
37.16,-9.625332,-9916.35,57.85907,0,0,0,0,0,9.625332,51.28041,9916.351,0,71.90889,-9.625332,28200000
37.36,-9.62862,-9918.364,57.87082,0,0,0,0,0,9.62862,51.29792,9918.364,0,71.94485,-9.62862,28200000
37.56,-9.632388,-9919.557,57.87777,0,0,0,0,0,9.632387,51.31799,9919.557,0,71.98607,-9.632388,28200000
37.76,-9.635616,-9887.533,57.69092,0,0,0,0,0,9.635616,51.33519,9887.532,0,72.02141,-9.635616,28100000
37.96,-9.638546,-9859.503,57.52737,0,0,0,0,0,9.638546,51.3508,9859.503,0,72.05349,-9.638546,28000000
38.16,-9.642073,-9856.919,57.5123,0,0,0,0,0,9.642074,51.3696,9856.919,0,72.09213,-9.642073,28000000
38.36,-9.645481,-9857.585,57.51619,0,0,0,0,0,9.645481,51.38775,9857.585,0,72.12947,-9.645481,28000000
38.56,-9.64853,-9855.462,57.5038,0,0,0,0,0,9.64853,51.404,9855.462,0,72.16289,-9.64853,27900000
38.76,-9.652118,-9857.71,57.51691,0,0,0,0,0,9.652118,51.42311,9857.71,0,72.20223,-9.652118,27900000
38.96,-9.655646,-9862.61,57.54551,0,0,0,0,0,9.655645,51.44191,9862.61,0,72.24093,-9.655646,27900000
39.16,-9.658695,-9862.28,57.54358,0,0,0,0,0,9.658695,51.45815,9862.28,0,72.27439,-9.658695,27900000
39.36,-9.661924,-9863.407,57.55016,0,0,0,0,0,9.661924,51.47535,9863.407,0,72.30984,-9.661924,27900000
39.56,-9.665451,-9868.694,57.58101,0,0,0,0,0,9.665451,51.49414,9868.694,0,72.34856,-9.665451,27900000
39.76,-9.66856,-9870.902,57.59388,0,0,0,0,0,9.668561,51.51071,9870.901,0,72.38273,-9.66856,27900000
39.96,-9.671788,-9873.418,57.60857,0,0,0,0,0,9.671788,51.52791,9873.418,0,72.4182,-9.671788,27900000
40.16,-9.675615,-9880.704,57.65108,0,0,0,0,0,9.675615,51.54829,9880.704,0,72.46027,-9.675615,27900000
40.36,-9.678784,-9884.589,57.67375,0,0,0,0,0,9.678784,51.56518,9884.589,0,72.49512,-9.678784,27900000
40.56,-9.681953,-9883.104,57.66508,0,0,0,0,0,9.681953,51.58206,9883.104,0,72.52998,-9.681953,27900000
40.76,-9.6856,-9888.602,57.69716,0,0,0,0,0,9.6856,51.60149,9888.603,0,72.57012,-9.6856,27900000
40.96,-9.688709,-9890.606,57.70885,0,0,0,0,0,9.688709,51.61806,9890.606,0,72.60435,-9.688709,27900000
41.16,-9.692058,-9894.029,57.72883,0,0,0,0,0,9.692058,51.63589,9894.029,0,72.64123,-9.692058,27900000
41.36,-9.695466,-9898.018,57.7521,0,0,0,0,0,9.695465,51.65405,9898.018,0,72.67878,-9.695466,27900000
41.56,-9.698873,-9897.364,57.74829,0,0,0,0,0,9.698873,51.67221,9897.364,0,72.71633,-9.698873,27900000
41.76,-9.702102,-9896.43,57.74283,0,0,0,0,0,9.702102,51.68941,9896.43,0,72.75193,-9.702102,27900000
41.96,-9.70557,-9899.385,57.76007,0,0,0,0,0,9.70557,51.70789,9899.385,0,72.79019,-9.70557,27900000
42.16,-9.708798,-9902.897,57.78057,0,0,0,0,0,9.708798,51.72508,9902.896,0,72.82581,-9.708798,27900000
42.36,-9.712027,-9904.932,57.79245,0,0,0,0,0,9.712028,51.74229,9904.933,0,72.86145,-9.712027,27900000
42.56,-9.715435,-9890.609,57.70887,0,0,0,0,0,9.715435,51.76044,9890.609,0,72.89908,-9.715435,27800000
42.76,-9.718783,-9872.05,57.60058,0,0,0,0,0,9.718783,51.77828,9872.05,0,72.93606,-9.718783,27800000
42.96,-9.722072,-9870.29,57.59032,0,0,0,0,0,9.722072,51.7958,9870.29,0,72.9724,-9.722072,27800000
43.16,-9.725599,-9873.891,57.61133,0,0,0,0,0,9.725599,51.81459,9873.892,0,73.0114,-9.725599,27800000
43.36,-9.728768,-9874.18,57.61301,0,0,0,0,0,9.728768,51.83148,9874.18,0,73.04645,-9.728768,27800000
43.56,-9.732177,-9878.439,57.63786,0,0,0,0,0,9.732177,51.84964,9878.438,0,73.08415,-9.732177,27800000
43.76,-9.735106,-9877.38,57.63168,0,0,0,0,0,9.735106,51.86524,9877.38,0,73.11657,-9.735106,27700000
43.96,-9.738813,-9887.152,57.6887,0,0,0,0,0,9.738812,51.88499,9887.151,0,73.1576,-9.738813,27800000
44.16,-9.741981,-9891.051,57.71145,0,0,0,0,0,9.741982,51.90187,9891.051,0,73.19269,-9.741981,27800000
44.36,-9.74545,-9895.678,57.73845,0,0,0,0,0,9.74545,51.92035,9895.678,0,73.23112,-9.74545,27800000
44.56,-9.748738,-9901.19,57.7706,0,0,0,0,0,9.748737,51.93787,9901.189,0,73.26755,-9.748738,27800000
44.76,-9.752027,-9905.478,57.79562,0,0,0,0,0,9.752028,51.95539,9905.478,0,73.30403,-9.752027,27800000
44.96,-9.755255,-9907.887,57.80969,0,0,0,0,0,9.755256,51.97259,9907.888,0,73.33983,-9.755255,27800000
45.16,-9.758723,-9914.086,57.84585,0,0,0,0,0,9.758723,51.99107,9914.086,0,73.37831,-9.758723,27800000
45.36,-9.761952,-9918.974,57.87437,0,0,0,0,0,9.761951,52.00827,9918.974,0,73.41414,-9.761952,27800000
45.56,-9.76536,-9924.181,57.90475,0,0,0,0,0,9.76536,52.02642,9924.181,0,73.45198,-9.76536,27800000
45.76,-9.768887,-9930.897,57.94394,0,0,0,0,0,9.768887,52.04522,9930.897,0,73.49116,-9.768887,27800000
45.96,-9.771996,-9934.211,57.96328,0,0,0,0,0,9.771996,52.06178,9934.211,0,73.52571,-9.771996,27800000
46.16,-9.775345,-9939.341,57.99321,0,0,0,0,0,9.775345,52.07962,9939.341,0,73.56293,-9.775345,27800000
46.36,-9.778931,-9948.317,58.04557,0,0,0,0,0,9.778932,52.09873,9948.316,0,73.60281,-9.778931,27800000
46.56,-9.781921,-9950.598,58.05889,0,0,0,0,0,9.78192,52.11465,9950.598,0,73.63607,-9.781921,27800000
46.76,-9.785329,-9955.928,58.08998,0,0,0,0,0,9.78533,52.13282,9955.928,0,73.674,-9.785329,27800000
46.96,-9.788797,-9964.854,58.14207,0,0,0,0,0,9.788797,52.15129,9964.854,0,73.71261,-9.788797,27800000
47.16,-9.792146,-9969.863,58.17129,0,0,0,0,0,9.792146,52.16913,9969.862,0,73.74989,-9.792146,27800000
47.36,-9.795553,-9975.406,58.20364,0,0,0,0,0,9.795553,52.18728,9975.406,0,73.78785,-9.795553,27800000
47.56,-9.798842,-9979.758,58.22903,0,0,0,0,0,9.798841,52.2048,9979.758,0,73.82451,-9.798842,27800000
47.76,-9.80225,-9986.875,58.27056,0,0,0,0,0,9.802251,52.22297,9986.876,0,73.86251,-9.80225,27800000
47.96,-9.805299,-9987.013,58.27136,0,0,0,0,0,9.8053,52.23921,9987.014,0,73.89651,-9.805299,27800000
48.16,-9.808707,-9991.648,58.2984,0,0,0,0,0,9.808707,52.25736,9991.647,0,73.93453,-9.808707,27800000
48.36,-9.812175,-9997.89,58.33482,0,0,0,0,0,9.812175,52.27584,9997.89,0,73.97324,-9.812175,27800000
48.56,-9.815284,-9987.478,58.27407,0,0,0,0,0,9.815285,52.2924,9987.479,0,74.00796,-9.815284,27800000
48.76,-9.818751,-9989.733,58.28723,0,0,0,0,0,9.818751,52.31087,9989.732,0,74.04668,-9.818751,27800000
48.96,-9.822339,-9997.158,58.33055,0,0,0,0,0,9.822339,52.32999,9997.158,0,74.08677,-9.822339,27800000
49.16,-9.825329,-9998.121,58.33617,0,0,0,0,0,9.825329,52.34592,9998.121,0,74.12019,-9.825329,27800000
49.36,-9.828497,-10000.28,58.3488,0,0,0,0,0,9.828498,52.3628,10000.29,0,74.15562,-9.828497,27800000
49.56,-9.832145,-10009.67,58.40353,0,0,0,0,0,9.832145,52.38223,10009.67,0,74.19642,-9.832145,27800000
49.76,-9.835314,-10014.93,58.43425,0,0,0,0,0,9.835314,52.39911,10014.93,0,74.23188,-9.835314,27800000
49.96,-9.838542,-10015.95,58.44021,0,0,0,0,0,9.838542,52.41631,10015.95,0,74.26802,-9.838542,27800000
50.16,-9.842309,-10027.99,58.51047,0,0,0,0,0,9.842309,52.43638,10027.99,0,74.3102,-9.842309,27800000
50.36,-9.845358,-10029.44,58.51891,0,0,0,0,0,9.845358,52.45263,10029.44,0,74.34436,-9.845358,27800000
50.56,-9.848647,-10034.78,58.55008,0,0,0,0,0,9.848646,52.47015,10034.78,0,74.38122,-9.848647,27800000
50.76,-9.852233,-10043.07,58.59846,0,0,0,0,0,9.852233,52.48926,10043.07,0,74.42143,-9.852233,27800000
50.96,-9.855463,-10047.13,58.62214,0,0,0,0,0,9.855463,52.50646,10047.13,0,74.45765,-9.855463,27800000
51.16,-9.858452,-10048.56,58.63047,0,0,0,0,0,9.858452,52.52239,10048.56,0,74.49119,-9.858452,27800000
51.36,-9.862219,-10056.16,58.67483,0,0,0,0,0,9.86222,52.54246,10056.16,0,74.53347,-9.862219,27800000
51.56,-9.865507,-10060.45,58.69986,0,0,0,0,0,9.865507,52.55997,10060.45,0,74.57039,-9.865507,27800000
51.76,-9.868557,-10055.75,58.67243,0,0,0,0,0,9.868557,52.57622,10055.75,0,74.60465,-9.868557,27800000
51.96,-9.872203,-10061.95,58.7086,0,0,0,0,0,9.872203,52.59565,10061.95,0,74.64562,-9.872203,27800000
52.16,-9.875671,-10021.42,58.47211,0,0,0,0,0,9.875671,52.61412,10021.42,0,74.6846,-9.875671,27700000
52.36,-9.878661,-10010.65,58.40928,0,0,0,0,0,9.878661,52.63005,10010.65,0,74.71822,-9.878661,27700000
52.56,-9.882129,-10012.49,58.42004,0,0,0,0,0,9.882129,52.64853,10012.5,0,74.75723,-9.882129,27700000
52.76,-9.885477,-10015.62,58.43826,0,0,0,0,0,9.885477,52.66637,10015.62,0,74.79491,-9.885477,27700000
52.96,-9.888706,-10015.68,58.43864,0,0,0,0,0,9.888706,52.68357,10015.68,0,74.83126,-9.888706,27700000
53.16,-9.891933,-10017.6,58.44983,0,0,0,0,0,9.891933,52.70076,10017.6,0,74.8676,-9.891933,27600000
53.36,-9.895761,-10027.56,58.50796,0,0,0,0,0,9.895761,52.72116,10027.56,0,74.91073,-9.895761,27700000
53.56,-9.898511,-10027.14,58.5055,0,0,0,0,0,9.898511,52.73581,10027.14,0,74.94172,-9.898511,27700000
53.76,-9.901918,-10030.71,58.52633,0,0,0,0,0,9.901918,52.75396,10030.71,0,74.98013,-9.901918,27700000
53.96,-9.905506,-10037.33,58.56495,0,0,0,0,0,9.905506,52.77308,10037.33,0,75.0206,-9.905506,27700000
54.16,-9.908555,-10039.5,58.57759,0,0,0,0,0,9.908555,52.78932,10039.5,0,75.055,-9.908555,27700000
54.36,-9.911964,-10045.94,58.6152,0,0,0,0,0,9.911963,52.80748,10045.94,0,75.09347,-9.911964,27700000
54.56,-9.915552,-10053.34,58.65834,0,0,0,0,0,9.915551,52.8266,10053.34,0,75.13399,-9.915552,27700000
54.76,-9.91866,-10050.05,58.63914,0,0,0,0,0,9.91866,52.84315,10050.05,0,75.1691,-9.91866,27700000
54.96,-9.921949,-10054.29,58.66389,0,0,0,0,0,9.921948,52.86068,10054.29,0,75.20626,-9.921949,27700000
55.16,-9.925416,-10059.64,58.69514,0,0,0,0,0,9.925415,52.87915,10059.64,0,75.24545,-9.925416,27700000
55.36,-9.928645,-10063.59,58.71817,0,0,0,0,0,9.928645,52.89635,10063.59,0,75.28197,-9.928645,27700000
55.56,-9.932052,-10061.61,58.70659,0,0,0,0,0,9.932053,52.91451,10061.61,0,75.32052,-9.932052,27600000
55.76,-9.935402,-10037.77,58.5675,0,0,0,0,0,9.935402,52.93235,10037.77,0,75.35842,-9.935402,27600000
55.96,-9.938809,-10033.17,58.54066,0,0,0,0,0,9.938809,52.9505,10033.17,0,75.397,-9.938809,27500000
56.16,-9.942217,-10034.02,58.54564,0,0,0,0,0,9.942217,52.96865,10034.02,0,75.43559,-9.942217,27500000
56.36,-9.945387,-10037.85,58.56796,0,0,0,0,0,9.945387,52.98554,10037.85,0,75.47151,-9.945387,27500000
56.56,-9.948794,-10038.32,58.5707,0,0,0,0,0,9.948794,53.0037,10038.32,0,75.51013,-9.948794,27500000
56.76,-9.952142,-10043.17,58.59899,0,0,0,0,0,9.952142,53.02153,10043.17,0,75.54809,-9.952142,27500000
56.96,-9.955311,-10044.48,58.60668,0,0,0,0,0,9.955311,53.03842,10044.48,0,75.58403,-9.955311,27500000
57.16,-9.958958,-10054.93,58.66765,0,0,0,0,0,9.958959,53.05785,10054.93,0,75.62542,-9.958958,27500000
57.36,-9.962067,-10057.88,58.68484,0,0,0,0,0,9.962067,53.07441,10057.88,0,75.6607,-9.962067,27500000
57.56,-9.965536,-10065.27,58.72799,0,0,0,0,0,9.965536,53.09289,10065.27,0,75.7001,-9.965536,27500000
57.76,-9.968823,-10071.76,58.76582,0,0,0,0,0,9.968823,53.1104,10071.76,0,75.73744,-9.968823,27600000
57.96,-9.972051,-10076.4,58.7929,0,0,0,0,0,9.972052,53.12761,10076.4,0,75.77413,-9.972051,27600000
58.16,-9.975281,-10081.67,58.82365,0,0,0,0,0,9.975281,53.14481,10081.67,0,75.81084,-9.975281,27600000
58.36,-9.978748,-10090.13,58.87303,0,0,0,0,0,9.978747,53.16328,10090.13,0,75.85027,-9.978748,27600000
58.56,-9.981977,-10093.29,58.89144,0,0,0,0,0,9.981977,53.18048,10093.29,0,75.88701,-9.981977,27600000
58.76,-9.985445,-10094.93,58.90103,0,0,0,0,0,9.985445,53.19896,10094.93,0,75.92648,-9.985445,27600000
58.96,-9.988853,-10101.57,58.93974,0,0,0,0,0,9.988853,53.21711,10101.57,0,75.96528,-9.988853,27600000
59.16,-9.991901,-10104.95,58.95948,0,0,0,0,0,9.991901,53.23336,10104.95,0,76,-9.991901,27600000
59.36,-9.99531,-10110.99,58.99472,0,0,0,0,0,9.99531,53.25152,10110.99,0,76.03884,-9.99531,27600000
59.56,-9.998837,-10119.59,59.04488,0,0,0,0,0,9.998837,53.27031,10119.59,0,76.07905,-9.998837,27600000
59.76,-10.00183,-10120.43,59.04979,0,0,0,0,0,10.00183,53.28624,10120.43,0,76.11314,-10.00183,27600000
59.96,-10.00541,-10092.33,58.88584,0,0,0,0,0,10.00541,53.30536,10092.33,0,76.15407,-10.00541,27500000
60.16,-10.00882,-10085.46,58.84576,0,0,0,0,0,10.00882,53.32351,10085.46,0,76.19295,-10.00882,27500000
60.36,-10.01211,-10086.41,58.85133,0,0,0,0,0,10.01211,53.34103,10086.41,0,76.2305,-10.01211,27500000
60.56,-10.01546,-10091.52,58.88112,0,0,0,0,0,10.01546,53.35887,10091.52,0,76.26873,-10.01546,27500000
60.76,-10.01881,-10095.27,58.90303,0,0,0,0,0,10.01881,53.37671,10095.27,0,76.30699,-10.01881,27500000
60.96,-10.02204,-10100.87,58.93565,0,0,0,0,0,10.02204,53.3939,10100.87,0,76.34388,-10.02204,27500000
61.16,-10.02526,-10105.85,58.96474,0,0,0,0,0,10.02526,53.41111,10105.85,0,76.3808,-10.02526,27500000
61.36,-10.02873,-10112.18,59.00168,0,0,0,0,0,10.02873,53.42958,10112.18,0,76.42046,-10.02873,27500000
61.56,-10.03214,-10120.12,59.04799,0,0,0,0,0,10.03214,53.44774,10120.12,0,76.45946,-10.03214,27500000
61.76,-10.03531,-10119.55,59.0447,0,0,0,0,0,10.03531,53.46462,10119.55,0,76.49573,-10.03531,27500000
61.96,-10.0389,-10128.48,59.09678,0,0,0,0,0,10.0389,53.48373,10128.48,0,76.5368,-10.0389,27500000
62.16,-10.04224,-10136.68,59.14461,0,0,0,0,0,10.04224,53.50157,10136.68,0,76.57516,-10.04224,27500000
62.36,-10.04517,-10137.92,59.15189,0,0,0,0,0,10.04517,53.51718,10137.92,0,76.60874,-10.04517,27500000
62.56,-10.04864,-10145.69,59.19718,0,0,0,0,0,10.04864,53.53566,10145.69,0,76.64849,-10.04864,27500000
62.76,-10.05223,-10157.05,59.26345,0,0,0,0,0,10.05223,53.55476,10157.05,0,76.68963,-10.05223,27500000
62.96,-10.05516,-10161.39,59.28878,0,0,0,0,0,10.05516,53.57037,10161.39,0,76.72324,-10.05516,27500000
63.16,-10.05875,-10168.97,59.33302,0,0,0,0,0,10.05875,53.58949,10168.97,0,76.76442,-10.05875,27500000
63.36,-10.06227,-10177.94,59.38538,0,0,0,0,0,10.06227,53.60828,10177.94,0,76.80492,-10.06227,27500000
63.56,-10.06526,-10181.99,59.40899,0,0,0,0,0,10.06526,53.62421,10181.99,0,76.83926,-10.06526,27600000
63.76,-10.06873,-10189.7,59.45398,0,0,0,0,0,10.06873,53.64268,10189.7,0,76.8791,-10.06873,27600000
63.96,-10.0722,-10200.23,59.51541,0,0,0,0,0,10.0722,53.66116,10200.23,0,76.91897,-10.0722,27600000
64.16,-10.07537,-10206.68,59.55304,0,0,0,0,0,10.07537,53.67804,10206.68,0,76.9554,-10.07537,27600000
64.36,-10.07854,-10206.32,59.55097,0,0,0,0,0,10.07854,53.69493,10206.32,0,76.99187,-10.07854,27600000
64.56,-10.0823,-10175.11,59.36885,0,0,0,0,0,10.0823,53.71499,10175.11,0,77.03521,-10.0823,27500000
64.76,-10.08541,-10170.6,59.34252,0,0,0,0,0,10.08541,53.73156,10170.6,0,77.071,-10.08541,27500000
64.96001,-10.08864,-10165.46,59.31257,0,0,0,0,0,10.08864,53.74876,10165.46,0,77.10818,-10.08864,27400000
65.16,-10.09217,-10172.58,59.35408,0,0,0,0,0,10.09217,53.76755,10172.58,0,77.14882,-10.09217,27400000
65.36,-10.09546,-10177.78,59.3844,0,0,0,0,0,10.09546,53.78507,10177.78,0,77.18673,-10.09546,27400000
65.56001,-10.09857,-10180.5,59.40031,0,0,0,0,0,10.09857,53.80163,10180.5,0,77.22257,-10.09857,27400000
65.76,-10.10209,-10189.43,59.4524,0,0,0,0,0,10.10209,53.82043,10189.43,0,77.26327,-10.10209,27500000
65.96001,-10.10538,-10196.49,59.49358,0,0,0,0,0,10.10538,53.83795,10196.49,0,77.30121,-10.10538,27500000
66.16,-10.10879,-10202.25,59.52723,0,0,0,0,0,10.10879,53.8561,10202.25,0,77.34055,-10.10879,27500000
66.36,-10.11208,-10208.9,59.56604,0,0,0,0,0,10.11208,53.87362,10208.91,0,77.37853,-10.11208,27500000
66.56001,-10.11567,-10220.87,59.63587,0,0,0,0,0,10.11567,53.89273,10220.87,0,77.41996,-10.11567,27500000
66.76,-10.11842,-10218.64,59.62282,0,0,0,0,0,10.11842,53.90739,10218.64,0,77.45175,-10.11842,27500000
66.96001,-10.12212,-10229.31,59.68511,0,0,0,0,0,10.12212,53.92714,10229.31,0,77.49461,-10.12212,27500000
67.16,-10.12553,-10239.72,59.74584,0,0,0,0,0,10.12553,53.9453,10239.72,0,77.53403,-10.12553,27500000
67.36,-10.12864,-10241.42,59.75578,0,0,0,0,0,10.12864,53.96186,10241.42,0,77.56999,-10.12864,27500000
67.56001,-10.13211,-10213.87,59.595,0,0,0,0,0,10.13211,53.98034,10213.87,0,77.61013,-10.13211,27400000
67.76,-10.13558,-10215.07,59.60201,0,0,0,0,0,10.13558,53.99881,10215.07,0,77.65029,-10.13558,27400000
67.96001,-10.13857,-10215.08,59.60209,0,0,0,0,0,10.13857,54.01474,10215.08,0,77.68492,-10.13857,27400000
68.16,-10.14185,-10221.23,59.63795,0,0,0,0,0,10.14185,54.03225,10221.23,0,77.72302,-10.14185,27400000
68.36,-10.1455,-10227.09,59.67212,0,0,0,0,0,10.1455,54.05169,10227.08,0,77.7653,-10.1455,27400000
68.56001,-10.14873,-10227.3,59.67336,0,0,0,0,0,10.14873,54.06889,10227.3,0,77.80275,-10.14873,27400000
68.76,-10.15214,-10235.2,59.71948,0,0,0,0,0,10.15214,54.08704,10235.2,0,77.84228,-10.15214,27400000
68.96001,-10.15537,-10241.36,59.75542,0,0,0,0,0,10.15537,54.10425,10241.36,0,77.87976,-10.15537,27400000
69.16,-10.15872,-10249.3,59.80173,0,0,0,0,0,10.15872,54.12209,10249.3,0,77.91863,-10.15872,27400000
69.36,-10.16212,-10256.31,59.84264,0,0,0,0,0,10.16212,54.14024,10256.31,0,77.95821,-10.16212,27400000
69.56001,-10.16517,-10261.92,59.87534,0,0,0,0,0,10.16517,54.15648,10261.92,0,77.99364,-10.16517,27400000
69.76,-10.16876,-10272.97,59.93983,0,0,0,0,0,10.16876,54.1756,10272.97,0,78.03534,-10.16876,27500000
69.96001,-10.17193,-10281.53,59.98977,0,0,0,0,0,10.17193,54.19248,10281.53,0,78.07219,-10.17193,27500000
70.16,-10.17546,-10283.83,60.00323,0,0,0,0,0,10.17546,54.21127,10283.83,0,78.11322,-10.17546,27500000
70.36,-10.17892,-10261.62,59.87359,0,0,0,0,0,10.17892,54.22975,10261.62,0,78.15358,-10.17892,27400000
70.56001,-10.18209,-10258.09,59.85299,0,0,0,0,0,10.18209,54.24663,10258.08,0,78.19048,-10.18209,27400000
70.76,-10.18544,-10264.66,59.89135,0,0,0,0,0,10.18544,54.26447,10264.66,0,78.22947,-10.18544,27400000
70.96001,-10.18873,-10269.15,59.91756,0,0,0,0,0,10.18873,54.28199,10269.15,0,78.26779,-10.18873,27400000
71.16,-10.19196,-10274.63,59.9495,0,0,0,0,0,10.19196,54.29919,10274.63,0,78.30541,-10.19196,27400000
71.36,-10.19543,-10283.13,59.99913,0,0,0,0,0,10.19543,54.31767,10283.13,0,78.34585,-10.19543,27400000
71.56001,-10.19877,-10293.54,60.05985,0,0,0,0,0,10.19877,54.3355,10293.54,0,78.3849,-10.19877,27400000
71.76,-10.20206,-10300.72,60.10175,0,0,0,0,0,10.20206,54.35302,10300.72,0,78.42328,-10.20206,27400000
71.96001,-10.20559,-10304.01,60.12096,0,0,0,0,0,10.20559,54.37181,10304.01,0,78.46446,-10.20559,27400000
72.16,-10.20882,-10310.62,60.15949,0,0,0,0,0,10.20882,54.38902,10310.62,0,78.50216,-10.20882,27400000
72.36,-10.21187,-10315,60.18509,0,0,0,0,0,10.21187,54.40526,10315,0,78.53778,-10.21187,27400000
72.56001,-10.2154,-10324.67,60.24151,0,0,0,0,0,10.2154,54.42406,10324.67,0,78.57902,-10.2154,27500000
72.76,-10.2188,-10336.08,60.30807,0,0,0,0,0,10.2188,54.44221,10336.08,0,78.61886,-10.2188,27500000
72.96001,-10.22191,-10339.96,60.3307,0,0,0,0,0,10.22191,54.45878,10339.96,0,78.65523,-10.22191,27500000
73.16,-10.22556,-10351.44,60.39769,0,0,0,0,0,10.22556,54.47821,10351.44,0,78.69791,-10.22556,27500000
73.36,-10.22879,-10340.7,60.33502,0,0,0,0,0,10.22879,54.49541,10340.7,0,78.73569,-10.22879,27500000
73.56001,-10.23214,-10320.28,60.21589,0,0,0,0,0,10.23214,54.51324,10320.28,0,78.7749,-10.23214,27400000
73.76,-10.2353,-10321.88,60.2252,0,0,0,0,0,10.2353,54.53013,10321.88,0,78.81202,-10.2353,27400000
73.96001,-10.23883,-10328.61,60.26448,0,0,0,0,0,10.23883,54.54892,10328.61,0,78.85336,-10.23883,27400000
74.16,-10.24194,-10333.8,60.29475,0,0,0,0,0,10.24194,54.56549,10333.8,0,78.88982,-10.24194,27400000
74.36,-10.24529,-10341.68,60.34072,0,0,0,0,0,10.24529,54.58332,10341.68,0,78.92908,-10.24529,27400000
74.56001,-10.24888,-10349.88,60.3886,0,0,0,0,0,10.24888,54.60243,10349.88,0,78.97117,-10.24888,27400000
74.76,-10.25211,-10355.73,60.4227,0,0,0,0,0,10.25211,54.61964,10355.73,0,79.00907,-10.25211,27400000
74.96001,-10.25527,-10361.61,60.45702,0,0,0,0,0,10.25527,54.63652,10361.61,0,79.04628,-10.25527,27400000
75.16,-10.25886,-10368.78,60.49887,0,0,0,0,0,10.25886,54.65563,10368.78,0,79.08841,-10.25886,27400000
75.36,-10.26209,-10373.75,60.52784,0,0,0,0,0,10.26209,54.67283,10373.75,0,79.12636,-10.26209,27400000
75.56001,-10.26514,-10376.95,60.5465,0,0,0,0,0,10.26514,54.68908,10376.95,0,79.16221,-10.26514,27400000
75.76,-10.26879,-10389.73,60.62111,0,0,0,0,0,10.26879,54.70851,10389.73,0,79.2051,-10.26879,27500000
75.96001,-10.27231,-10402.2,60.69384,0,0,0,0,0,10.27231,54.7273,10402.2,0,79.2466,-10.27231,27500000
76.16,-10.27512,-10405.3,60.71195,0,0,0,0,0,10.27512,54.74228,10405.3,0,79.27968,-10.27512,27500000
76.36,-10.27889,-10415.71,60.77267,0,0,0,0,0,10.27889,54.76234,10415.71,0,79.32404,-10.27889,27500000
76.56001,-10.28206,-10392.59,60.63781,0,0,0,0,0,10.28206,54.77922,10392.59,0,79.36135,-10.28206,27400000
76.76,-10.28523,-10385.6,60.59701,0,0,0,0,0,10.28523,54.79611,10385.6,0,79.3987,-10.28523,27400000
76.96001,-10.28888,-10393.13,60.64092,0,0,0,0,0,10.28888,54.81554,10393.13,0,79.4417,-10.28888,27400000
77.16,-10.29216,-10400.34,60.683,0,0,0,0,0,10.29216,54.83305,10400.34,0,79.48047,-10.29216,27400000
77.36,-10.29527,-10405.64,60.71391,0,0,0,0,0,10.29527,54.84962,10405.64,0,79.51715,-10.29527,27400000
77.56001,-10.29868,-10411.79,60.74981,0,0,0,0,0,10.29868,54.86778,10411.79,0,79.55738,-10.29868,27400000
77.76,-10.30227,-10424.82,60.82582,0,0,0,0,0,10.30227,54.88689,10424.82,0,79.59973,-10.30227,27400000
77.96001,-10.30532,-10432.45,60.87033,0,0,0,0,0,10.30532,54.90314,10432.45,0,79.63576,-10.30532,27500000
78.16,-10.30861,-10434.94,60.88486,0,0,0,0,0,10.30861,54.92065,10434.94,0,79.6746,-10.30861,27400000
78.36,-10.31219,-10443.71,60.93604,0,0,0,0,0,10.31219,54.93977,10443.71,0,79.717,-10.31219,27500000
78.56001,-10.31536,-10451.89,60.9838,0,0,0,0,0,10.31536,54.95665,10451.89,0,79.75449,-10.31536,27500000
78.76,-10.31859,-10460.06,61.03144,0,0,0,0,0,10.31859,54.97385,10460.06,0,79.79268,-10.31859,27500000
78.96001,-10.32218,-10470.99,61.09524,0,0,0,0,0,10.32218,54.99297,10470.99,0,79.83514,-10.32218,27500000
79.16,-10.32541,-10476.51,61.12746,0,0,0,0,0,10.32541,55.01017,10476.51,0,79.87336,-10.32541,27500000
79.36,-10.3287,-10485.17,61.17799,0,0,0,0,0,10.3287,55.02768,10485.17,0,79.9123,-10.3287,27500000
79.56001,-10.33204,-10494.39,61.23176,0,0,0,0,0,10.33204,55.04552,10494.39,0,79.95197,-10.33204,27500000
79.76,-10.33557,-10491.41,61.21437,0,0,0,0,0,10.33557,55.06432,10491.41,0,79.9938,-10.33557,27500000
79.96001,-10.33856,-10462.73,61.04706,0,0,0,0,0,10.33856,55.08025,10462.73,0,80.02925,-10.33856,27400000
80.16,-10.34227,-10471.24,61.09668,0,0,0,0,0,10.34227,55.09999,10471.24,0,80.07322,-10.34227,27400000
80.36,-10.3455,-10478.29,61.13784,0,0,0,0,0,10.3455,55.11719,10478.29,0,80.11153,-10.3455,27400000
80.56001,-10.34873,-10483.24,61.16669,0,0,0,0,0,10.34873,55.1344,10483.24,0,80.14987,-10.34873,27400000
80.76,-10.35207,-10492.01,61.2179,0,0,0,0,0,10.35207,55.15223,10492.01,0,80.18964,-10.35207,27500000
80.96001,-10.35542,-10499.73,61.26293,0,0,0,0,0,10.35542,55.17007,10499.73,0,80.22942,-10.35542,27500000
81.16,-10.35859,-10504.1,61.28842,0,0,0,0,0,10.35859,55.18695,10504.1,0,80.26709,-10.35859,27500000
81.36,-10.36194,-10508.96,61.31675,0,0,0,0,0,10.36194,55.20479,10508.96,0,80.3069,-10.36194,27500000
81.56001,-10.36553,-10520.76,61.38559,0,0,0,0,0,10.36553,55.2239,10520.75,0,80.34957,-10.36553,27500000
81.76,-10.3687,-10525.15,61.41125,0,0,0,0,0,10.3687,55.24079,10525.15,0,80.38729,-10.3687,27500000
81.96001,-10.37216,-10535.38,61.47093,0,0,0,0,0,10.37216,55.25927,10535.38,0,80.42858,-10.37216,27500000
82.16,-10.37539,-10543.69,61.5194,0,0,0,0,0,10.37539,55.27646,10543.69,0,80.46703,-10.37539,27500000
82.36,-10.37862,-10554.01,61.57961,0,0,0,0,0,10.37862,55.29366,10554.01,0,80.50549,-10.37862,27500000
82.56001,-10.38209,-10561.86,61.62543,0,0,0,0,0,10.38209,55.31214,10561.86,0,80.54683,-10.38209,27500000
82.76,-10.38514,-10566.02,61.64968,0,0,0,0,0,10.38514,55.32839,10566.02,0,80.5832,-10.38514,27500000
82.96001,-10.38878,-10580.45,61.73392,0,0,0,0,0,10.38878,55.34781,10580.45,0,80.62669,-10.38878,27600000
83.16,-10.39189,-10558.57,61.6062,0,0,0,0,0,10.39189,55.36438,10558.57,0,80.6638,-10.39189,27500000
83.36,-10.3956,-10551.07,61.56248,0,0,0,0,0,10.3956,55.38413,10551.07,0,80.70805,-10.3956,27500000
83.56001,-10.39883,-10556.83,61.59609,0,0,0,0,0,10.39883,55.40133,10556.83,0,80.74661,-10.39883,27500000
83.76,-10.40194,-10560.59,61.618,0,0,0,0,0,10.40194,55.41789,10560.59,0,80.78376,-10.40194,27500000
83.96001,-10.40535,-10569.1,61.66769,0,0,0,0,0,10.40535,55.43605,10569.1,0,80.8245,-10.40535,27500000
84.16,-10.4087,-10569.96,61.67267,0,0,0,0,0,10.4087,55.45389,10569.96,0,80.86453,-10.4087,27500000
84.36,-10.41198,-10576.1,61.70848,0,0,0,0,0,10.41198,55.47141,10576.09,0,80.90388,-10.41198,27500000
84.56001,-10.41545,-10586.27,61.76786,0,0,0,0,0,10.41545,55.48988,10586.27,0,80.94536,-10.41545,27500000
84.76,-10.4188,-10594.82,61.81773,0,0,0,0,0,10.4188,55.50772,10594.82,0,80.98545,-10.4188,27500000
84.96001,-10.42215,-10600.88,61.85308,0,0,0,0,0,10.42215,55.52555,10600.88,0,81.02555,-10.42215,27500000
85.16,-10.42556,-10611.35,61.91419,0,0,0,0,0,10.42556,55.54372,10611.35,0,81.06639,-10.42556,27500000
85.36,-10.42866,-10617.57,61.95048,0,0,0,0,0,10.42866,55.56028,10617.57,0,81.10364,-10.42866,27500000
85.56001,-10.43195,-10625.56,61.99708,0,0,0,0,0,10.43195,55.5778,10625.56,0,81.14308,-10.43195,27500000
85.76,-10.43548,-10634.54,62.0495,0,0,0,0,0,10.43548,55.5966,10634.54,0,81.18541,-10.43548,27600000
85.96001,-10.43871,-10644.98,62.11039,0,0,0,0,0,10.43871,55.61379,10644.98,0,81.22413,-10.43871,27600000
86.16,-10.44194,-10651.65,62.14931,0,0,0,0,0,10.44194,55.63099,10651.65,0,81.2629,-10.44194,27600000
86.36,-10.44558,-10658.91,62.1917,0,0,0,0,0,10.44559,55.65042,10658.91,0,81.30671,-10.44558,27600000
86.56001,-10.44881,-10629.25,62.01863,0,0,0,0,0,10.44881,55.66763,10629.25,0,81.34549,-10.44881,27500000
86.76,-10.45204,-10629.12,62.01785,0,0,0,0,0,10.45204,55.68483,10629.12,0,81.38431,-10.45204,27500000
86.96001,-10.45533,-10634.68,62.0503,0,0,0,0,0,10.45533,55.70235,10634.68,0,81.42386,-10.45533,27500000
87.16,-10.45892,-10643.42,62.10132,0,0,0,0,0,10.45892,55.72146,10643.42,0,81.467,-10.45892,27500000
87.36,-10.46197,-10642.95,62.09855,0,0,0,0,0,10.46197,55.73771,10642.95,0,81.50371,-10.46197,27500000
87.56001,-10.46526,-10648.66,62.13189,0,0,0,0,0,10.46526,55.75522,10648.66,0,81.54329,-10.46526,27500000
87.76,-10.4689,-10660.7,62.20215,0,0,0,0,0,10.4689,55.77465,10660.7,0,81.58721,-10.4689,27500000
87.96001,-10.47201,-10667.54,62.24202,0,0,0,0,0,10.47201,55.79122,10667.54,0,81.62468,-10.47201,27500000
88.16,-10.47518,-10671.05,62.26252,0,0,0,0,0,10.47518,55.80811,10671.05,0,81.66288,-10.47518,27500000
88.36,-10.47889,-10683.98,62.33799,0,0,0,0,0,10.47889,55.82785,10683.98,0,81.70757,-10.47889,27500000
88.56001,-10.48206,-10693.25,62.39208,0,0,0,0,0,10.48206,55.84473,10693.25,0,81.7458,-10.48206,27500000
88.76,-10.48517,-10700.64,62.43517,0,0,0,0,0,10.48517,55.8613,10700.64,0,81.78332,-10.48517,27600000
88.89201,-10.48768,-10707.1,62.47285,0,0,0,0,0,10.48768,55.87468,10707.1,0,81.81364,-10.48768,27600000