File: bamboo-d-9mm.csv
Time sec,Extension mm,Load kgf,Compressive stress MPa,Cycle Count ,Total Cycle Count ,Repetitions Count ,Marked Data ,PIP Count ,Compressive extension mm,Compressive strain %,Compressive load kgf,Displacement (Strain 1) mm,True strain %,Corrected Position mm,True stress Pa
0,0,-0.03813029,0.0002224793,0,0,0,0,0,0,0,0.03813029,0,0,0,222.4793
1.1,-0.01829559,-2.85283,0.01664544,0,0,0,0,0,0.01829559,0.0974725,2.85283,0,0.09752003,-0.01829559,16629.22
2.2,-0.03689012,-8.738139,0.05098454,0,0,0,0,0,0.03689012,0.1965377,8.738139,0,0.1967311,-0.03689012,50884.34
3.3,-0.05506613,-21.28888,0.1242145,0,0,0,0,0,0.05506613,0.2933731,21.28888,0,0.2938043,-0.05506613,123850.1
4.4,-0.07324214,-44.21535,0.2579839,0,0,0,0,0,0.07324214,0.3902085,44.21535,0,0.3909718,-0.07324214,256977.2
5.5,-0.0916573,-75.05235,0.437909,0,0,0,0,0,0.0916573,0.4883181,75.05235,0,0.4895142,-0.0916573,435770.6
6.6,-0.1101323,-114.5673,0.6684673,0,0,0,0,0,0.1101323,0.5867462,114.5673,0,0.5884744,-0.1101323,664545.1
7.7,-0.1284279,-162.1182,0.9459136,0,0,0,0,0,0.1284278,0.6842187,162.1183,0,0.6865702,-0.1284279,939441.4
8.8,-0.1466039,-217.7617,1.270577,0,0,0,0,0,0.1466039,0.7810541,217.7617,0,0.7841203,-0.1466039,1260653
9.900001,-0.1648994,-281.1916,1.640673,0,0,0,0,0,0.1648995,0.8785266,281.1917,0,0.8824084,-0.1648994,1626259
11,-0.1834342,-351.7699,2.052476,0,0,0,0,0,0.1834342,0.9772732,351.7699,0,0.9820799,-0.1834342,2032418
12.1,-0.2017896,-426.1689,2.486573,0,0,0,0,0,0.2017896,1.075064,426.1689,0,1.080885,-0.2017896,2459841
13.2,-0.2199058,-503.048,2.935141,0,0,0,0,0,0.2199058,1.171581,503.048,0,1.178498,-0.2199058,2900753
14.3,-0.2382014,-582.8541,3.400787,0,0,0,0,0,0.2382014,1.269054,582.8541,0,1.277175,-0.2382014,3357629
15.4,-0.2567959,-668.0198,3.897704,0,0,0,0,0,0.2567959,1.368119,668.0198,0,1.377564,-0.2567959,3844379
16.5,-0.2750915,-754.3796,4.401589,0,0,0,0,0,0.2750915,1.465591,754.3796,0,1.476437,-0.2750915,4337080
17.6,-0.2932675,-843.7194,4.922861,0,0,0,0,0,0.2932675,1.562427,843.7194,0,1.574761,-0.2932675,4845945
18.7,-0.3116229,-939.1296,5.479552,0,0,0,0,0,0.3116229,1.660218,939.1296,0,1.674154,-0.3116229,5388580
19.8,-0.3299783,-1036.107,6.04539,0,0,0,0,0,0.3299783,1.758009,1036.107,0,1.773645,-0.3299783,5939111
20.9,-0.3484532,-1132.425,6.607378,0,0,0,0,0,0.3484532,1.856437,1132.425,0,1.873885,-0.3484532,6484716
22,-0.366689,-1231.682,7.186513,0,0,0,0,0,0.366689,1.953591,1231.682,0,1.972926,-0.366689,7046118
23.1,-0.384865,-1337.067,7.801404,0,0,0,0,0,0.384865,2.050426,1337.067,0,2.071739,-0.384865,7641441
24.2,-0.40334,-1444.716,8.429506,0,0,0,0,0,0.40334,2.148854,1444.716,0,2.172279,-0.40334,8248368
25.3,-0.4217551,-1553.543,9.064479,0,0,0,0,0,0.4217551,2.246964,1553.543,0,2.272593,-0.4217551,8860803
26.4,-0.4399909,-1660.124,9.686346,0,0,0,0,0,0.4399909,2.344118,1660.124,0,2.372029,-0.4399909,9459287
27.5,-0.4582865,-1769.076,10.32205,0,0,0,0,0,0.4582865,2.44159,1769.076,0,2.471891,-0.4582865,1.01E+07
28.6,-0.4766419,-1879.487,10.96627,0,0,0,0,0,0.4766419,2.539382,1879.487,0,2.57218,-0.4766419,1.07E+07
29.7,-0.4950571,-1987.471,11.59633,0,0,0,0,0,0.4950571,2.637491,1987.471,0,2.672897,-0.4950571,1.13E+07
30.8,-0.5134125,-2093.395,12.21436,0,0,0,0,0,0.5134125,2.735282,2093.395,0,2.773387,-0.5134125,1.19E+07
31.9,-0.5316483,-2198.416,12.82713,0,0,0,0,0,0.5316483,2.832436,2198.416,0,2.873323,-0.5316483,1.25E+07
33,-0.5499438,-2302.339,13.43349,0,0,0,0,0,0.5499438,2.929908,2302.339,0,2.973687,-0.5499438,1.30E+07
34.1,-0.5684188,-2406.056,14.03865,0,0,0,0,0,0.5684188,3.028337,2406.056,0,3.075138,-0.5684188,1.36E+07
35.2,-0.5867143,-2505.516,14.61897,0,0,0,0,0,0.5867143,3.125809,2505.516,0,3.175705,-0.5867143,1.42E+07
36.3,-0.6048904,-2601.25,15.17755,0,0,0,0,0,0.6048903,3.222645,2601.25,0,3.275715,-0.6048904,1.47E+07
37.4,-0.6233055,-2695.862,15.72958,0,0,0,0,0,0.6233056,3.320754,2695.862,0,3.377143,-0.6233055,1.52E+07
38.5,-0.6417805,-2788.984,16.27292,0,0,0,0,0,0.6417805,3.419182,2788.984,0,3.479004,-0.6417805,1.57E+07
39.6,-0.6600761,-2877.279,16.7881,0,0,0,0,0,0.6600761,3.516655,2877.279,0,3.579978,-0.6600761,1.62E+07
40.7,-0.6783119,-2960.757,17.27517,0,0,0,0,0,0.6783119,3.613809,2960.757,0,3.680724,-0.6783119,1.67E+07
41.8,-0.6966075,-3042.436,17.75175,0,0,0,0,0,0.6966075,3.711282,3042.437,0,3.781902,-0.6966075,1.71E+07
42.9,-0.7150824,-3121.413,18.21255,0,0,0,0,0,0.7150824,3.809709,3121.413,0,3.884176,-0.7150824,1.75E+07
44,-0.7334378,-3197.525,18.65664,0,0,0,0,0,0.7334378,3.907501,3197.525,0,3.985892,-0.7334378,1.79E+07
45.1,-0.751554,-3267.246,19.06345,0,0,0,0,0,0.751554,4.004017,3267.246,0,4.086384,-0.751554,1.83E+07
46.2,-0.7699692,-3335.04,19.459,0,0,0,0,0,0.7699692,4.102127,3335.04,0,4.188638,-0.7699692,1.87E+07
47.3,-0.788504,-3399.912,19.83751,0,0,0,0,0,0.7885039,4.200873,3399.912,0,4.291662,-0.788504,1.90E+07
48.4,-0.8067995,-3458.896,20.18167,0,0,0,0,0,0.8067996,4.298346,3458.896,0,4.393461,-0.8067995,1.93E+07
49.5,-0.824856,-3513.102,20.49794,0,0,0,0,0,0.824856,4.394544,3513.102,0,4.49403,-0.824856,1.96E+07
50.6,-0.8432711,-3567.02,20.81254,0,0,0,0,0,0.8432711,4.492654,3567.02,0,4.596702,-0.8432711,1.99E+07
51.7,-0.8618058,-3620.018,21.12177,0,0,0,0,0,0.8618058,4.5914,3620.018,0,4.700147,-0.8618058,2.02E+07
52.8,-0.8800417,-3667.73,21.40015,0,0,0,0,0,0.8800417,4.688555,3667.729,0,4.802028,-0.8800417,2.04E+07
53.9,-0.8983372,-3713.297,21.66603,0,0,0,0,0,0.8983372,4.786027,3713.297,0,4.904348,-0.8983372,2.06E+07
55,-0.916573,-3756.503,21.91812,0,0,0,0,0,0.916573,4.883181,3756.503,0,5.006437,-0.916573,2.08E+07
56.1,-0.9351078,-3800.838,22.1768,0,0,0,0,0,0.9351079,4.981928,3800.838,0,5.110308,-0.9351078,2.11E+07
57.2,-0.9534632,-3841.907,22.41643,0,0,0,0,0,0.9534632,5.079719,3841.907,0,5.213279,-0.9534632,2.13E+07
58.3,-0.9716392,-3879.22,22.63414,0,0,0,0,0,0.9716392,5.176554,3879.22,0,5.315349,-0.9716392,2.15E+07
59.4,-0.989875,-3916.331,22.85067,0,0,0,0,0,0.989875,5.273708,3916.331,0,5.417859,-0.989875,2.16E+07
60.5,-1.008469,-3955.952,23.08184,0,0,0,0,0,1.00847,5.372773,3955.952,0,5.522494,-1.008469,2.18E+07
61.6,-1.026825,-3991.01,23.2864,0,0,0,0,0,1.026825,5.470564,3991.01,0,5.625891,-1.026825,2.20E+07
62.7,-1.045061,-4024.644,23.48265,0,0,0,0,0,1.045061,5.567718,4024.645,0,5.72872,-1.045061,2.22E+07
63.8,-1.063297,-4056.513,23.66859,0,0,0,0,0,1.063297,5.664872,4056.513,0,5.831655,-1.063297,2.23E+07
64.9,-1.081652,-4089.121,23.85885,0,0,0,0,0,1.081652,5.762663,4089.121,0,5.935372,-1.081652,2.25E+07
66,-1.100067,-4120.353,24.04108,0,0,0,0,0,1.100067,5.860773,4120.353,0,6.039536,-1.100067,2.26E+07
67.10001,-1.118422,-4149.853,24.21321,0,0,0,0,0,1.118422,5.958564,4149.854,0,6.143469,-1.118422,2.28E+07
68.20001,-1.136658,-4176.829,24.3706,0,0,0,0,0,1.136658,6.055718,4176.829,0,6.246832,-1.136658,2.29E+07
69.3,-1.154954,-4202.841,24.52237,0,0,0,0,0,1.154954,6.15319,4202.841,0,6.350642,-1.154954,2.30E+07
70.4,-1.173489,-4229.621,24.67863,0,0,0,0,0,1.173489,6.251937,4229.621,0,6.455918,-1.173489,2.31E+07
71.5,-1.191724,-4253.584,24.81845,0,0,0,0,0,1.191724,6.349091,4253.584,0,6.559605,-1.191724,2.32E+07
72.60001,-1.20996,-4278.122,24.96162,0,0,0,0,0,1.20996,6.446245,4278.122,0,6.663399,-1.20996,2.34E+07
73.70001,-1.228316,-4299.66,25.08729,0,0,0,0,0,1.228315,6.544036,4299.66,0,6.767983,-1.228316,2.34E+07
74.8,-1.24685,-4320.008,25.20601,0,0,0,0,0,1.24685,6.642783,4320.008,0,6.8737,-1.24685,2.35E+07
75.9,-1.265086,-4337.643,25.3089,0,0,0,0,0,1.265086,6.739937,4337.643,0,6.977822,-1.265086,2.36E+07
77,-1.283322,-4356.701,25.4201,0,0,0,0,0,1.283322,6.83709,4356.701,0,7.082051,-1.283322,2.37E+07
78.10001,-1.301617,-4374.265,25.52258,0,0,0,0,0,1.301618,6.934563,4374.265,0,7.186732,-1.301617,2.38E+07
79.20001,-1.320152,-4391.753,25.62462,0,0,0,0,0,1.320152,7.033309,4391.753,0,7.292893,-1.320152,2.38E+07
80.3,-1.338448,-4406.024,25.70789,0,0,0,0,0,1.338448,7.130782,4406.024,0,7.397794,-1.338448,2.39E+07
81.4,-1.356624,-4419.311,25.78541,0,0,0,0,0,1.356624,7.227618,4419.311,0,7.502119,-1.356624,2.39E+07
82.50001,-1.374919,-4433.564,25.86858,0,0,0,0,0,1.374919,7.32509,4433.564,0,7.607241,-1.374919,2.40E+07
83.60001,-1.393394,-4447.86,25.95199,0,0,0,0,0,1.393394,7.423518,4447.86,0,7.713505,-1.393394,2.40E+07
84.70001,-1.41175,-4460.236,26.0242,0,0,0,0,0,1.41175,7.521309,4460.236,0,7.819194,-1.41175,2.41E+07
85.8,-1.429926,-4469.998,26.08116,0,0,0,0,0,1.429926,7.618144,4469.998,0,7.923959,-1.429926,2.41E+07
86.9,-1.448281,-4482.415,26.15361,0,0,0,0,0,1.448281,7.715936,4482.415,0,8.029871,-1.448281,2.41E+07
88.00001,-1.466756,-4494.24,26.2226,0,0,0,0,0,1.466756,7.814364,4494.24,0,8.136586,-1.466756,2.42E+07
89.10001,-1.485171,-4505.541,26.28854,0,0,0,0,0,1.485171,7.912473,4505.541,0,8.243068,-1.485171,2.42E+07
90.20001,-1.503168,-4514.162,26.33885,0,0,0,0,0,1.503168,8.008353,4514.163,0,8.347241,-1.503168,2.42E+07
91.3,-1.521583,-4523.227,26.39174,0,0,0,0,0,1.521583,8.106462,4523.227,0,8.453948,-1.521583,2.43E+07
92.4,-1.540058,-4534.351,26.45664,0,0,0,0,0,1.540058,8.20489,4534.351,0,8.561116,-1.540058,2.43E+07
93.50001,-1.558294,-4542.553,26.5045,0,0,0,0,0,1.558294,8.302045,4542.553,0,8.667011,-1.558294,2.43E+07
94.60001,-1.576649,-4550.737,26.55225,0,0,0,0,0,1.576649,8.399836,4550.737,0,8.773712,-1.576649,2.43E+07
95.70001,-1.595005,-4558.942,26.60012,0,0,0,0,0,1.595005,8.497627,4558.942,0,8.880528,-1.595005,2.43E+07
96.8,-1.6133,-4568.22,26.65425,0,0,0,0,0,1.6133,8.595099,4568.22,0,8.987109,-1.6133,2.44E+07
97.9,-1.631775,-4577.541,26.70864,0,0,0,0,0,1.631775,8.693527,4577.541,0,9.094851,-1.631775,2.44E+07
99.00001,-1.650011,-4584.713,26.75049,0,0,0,0,0,1.650011,8.790682,4584.713,0,9.201312,-1.650011,2.44E+07
100.1,-1.668187,-4592.504,26.79595,0,0,0,0,0,1.668187,8.887517,4592.504,0,9.307536,-1.668187,2.44E+07
101.2,-1.686781,-4602.2,26.85252,0,0,0,0,0,1.686782,8.986582,4602.201,0,9.416324,-1.686781,2.44E+07
102.3,-1.705077,-4607.765,26.88499,0,0,0,0,0,1.705077,9.084054,4607.765,0,9.523477,-1.705077,2.44E+07
103.4,-1.723193,-4612.507,26.91266,0,0,0,0,0,1.723193,9.180571,4612.507,0,9.629694,-1.723193,2.44E+07
104.5,-1.741608,-4620.559,26.95964,0,0,0,0,0,1.741608,9.27868,4620.559,0,9.737779,-1.741608,2.45E+07
105.6,-1.760083,-4629.516,27.0119,0,0,0,0,0,1.760083,9.37711,4629.516,0,9.846335,-1.760083,2.45E+07
106.7,-1.778259,-4634.662,27.04193,0,0,0,0,0,1.778259,9.473944,4634.662,0,9.953246,-1.778259,2.45E+07
107.8,-1.796674,-4641.939,27.08438,0,0,0,0,0,1.796674,9.572054,4641.939,0,10.06168,-1.796674,2.45E+07
108.9,-1.81503,-4649.273,27.12717,0,0,0,0,0,1.81503,9.669845,4649.272,0,10.16988,-1.81503,2.45E+07
110,-1.833266,-4656.933,27.17187,0,0,0,0,0,1.833266,9.766998,4656.933,0,10.2775,-1.833266,2.45E+07
111.1,-1.8518,-4664.197,27.21425,0,0,0,0,0,1.8518,9.865746,4664.197,0,10.38699,-1.8518,2.45E+07
112.2,-1.870036,-4667.34,27.23259,0,0,0,0,0,1.870036,9.962899,4667.34,0,10.49484,-1.870036,2.45E+07
113.3,-1.888212,-4672.871,27.26486,0,0,0,0,0,1.888212,10.05974,4672.871,0,10.60245,-1.888212,2.45E+07
114.4,-1.906747,-4681.838,27.31718,0,0,0,0,0,1.906747,10.15848,4681.838,0,10.7123,-1.906747,2.45E+07
115.5,-1.925102,-4688.394,27.35544,0,0,0,0,0,1.925102,10.25627,4688.394,0,10.8212,-1.925102,2.45E+07
116.6,-1.943278,-4692.195,27.37761,0,0,0,0,0,1.943278,10.35311,4692.195,0,10.92917,-1.943278,2.45E+07
117.7,-1.961753,-4699.109,27.41796,0,0,0,0,0,1.961754,10.45154,4699.109,0,11.03902,-1.961753,2.46E+07
118.8,-1.979989,-4704.199,27.44766,0,0,0,0,0,1.979989,10.54869,4704.199,0,11.14757,-1.979989,2.46E+07
119.9,-1.998345,-4709.11,27.47631,0,0,0,0,0,1.998345,10.64648,4709.11,0,11.25696,-1.998345,2.46E+07
121,-2.01676,-4715.567,27.51398,0,0,0,0,0,2.01676,10.74459,4715.567,0,11.36682,-2.01676,2.46E+07
122.1,-2.034995,-4720.812,27.54459,0,0,0,0,0,2.034995,10.84174,4720.812,0,11.47572,-2.034995,2.46E+07
123.2,-2.053231,-4726.149,27.57573,0,0,0,0,0,2.053231,10.9389,4726.149,0,11.58475,-2.053231,2.46E+07
124.3,-2.071826,-4734.236,27.62291,0,0,0,0,0,2.071826,11.03796,4734.236,0,11.69605,-2.071826,2.46E+07
125.4,-2.090061,-4738.987,27.65063,0,0,0,0,0,2.090061,11.13512,4738.987,0,11.80531,-2.090061,2.46E+07
126.5,-2.108178,-4743.286,27.67572,0,0,0,0,0,2.108178,11.23164,4743.286,0,11.91398,-2.108178,2.46E+07
127.6,-2.126712,-4749.728,27.7133,0,0,0,0,0,2.126712,11.33038,4749.728,0,12.02529,-2.126712,2.46E+07
128.7,-2.145247,-4756.089,27.75042,0,0,0,0,0,2.145247,11.42913,4756.089,0,12.13671,-2.145247,2.46E+07
129.8,-2.163304,-4758.97,27.76723,0,0,0,0,0,2.163304,11.52533,4758.97,0,12.24538,-2.163304,2.46E+07
130.9,-2.181599,-4765.104,27.80302,0,0,0,0,0,2.181599,11.6228,4765.104,0,12.35561,-2.181599,2.46E+07
132,-2.200015,-4770.661,27.83544,0,0,0,0,0,2.200015,11.72091,4770.661,0,12.46669,-2.200015,2.46E+07
133.1,-2.21837,-4775.303,27.86253,0,0,0,0,0,2.21837,11.8187,4775.303,0,12.57753,-2.21837,2.46E+07
134.2,-2.236725,-4781.612,27.89934,0,0,0,0,0,2.236725,11.91649,4781.612,0,12.68848,-2.236725,2.46E+07
135.3,-2.254901,-4785.382,27.92133,0,0,0,0,0,2.254901,12.01333,4785.382,0,12.79848,-2.254901,2.46E+07
136.4,-2.273316,-4792.172,27.96095,0,0,0,0,0,2.273316,12.11144,4792.172,0,12.91005,-2.273316,2.46E+07
137.5,-2.291732,-4798.711,27.99911,0,0,0,0,0,2.291732,12.20954,4798.711,0,13.02174,-2.291732,2.46E+07
138.6,-2.310147,-4803.627,28.02779,0,0,0,0,0,2.310147,12.30765,4803.627,0,13.13356,-2.310147,2.46E+07
139.7,-2.328203,-4805.626,28.03945,0,0,0,0,0,2.328203,12.40385,4805.626,0,13.24332,-2.328203,2.46E+07
140.8,-2.346558,-4812.411,28.07904,0,0,0,0,0,2.346559,12.50164,4812.412,0,13.35502,-2.346558,2.46E+07
141.9,-2.365213,-4819.469,28.12022,0,0,0,0,0,2.365213,12.60103,4819.469,0,13.46867,-2.365213,2.46E+07
143,-2.383449,-4823.992,28.14661,0,0,0,0,0,2.383449,12.69818,4823.992,0,13.57989,-2.383449,2.46E+07
144.1,-2.401565,-4827.237,28.16555,0,0,0,0,0,2.401565,12.7947,4827.237,0,13.6905,-2.401565,2.46E+07
145.2,-2.41998,-4831.491,28.19036,0,0,0,0,0,2.41998,12.89281,4831.491,0,13.80307,-2.41998,2.46E+07
146.3,-2.438395,-4837.521,28.22555,0,0,0,0,0,2.438395,12.99092,4837.521,0,13.91577,-2.438395,2.46E+07
147.4,-2.456691,-4842.83,28.25653,0,0,0,0,0,2.456691,13.08839,4842.83,0,14.02786,-2.456691,2.46E+07
148.5,-2.474987,-4847.25,28.28232,0,0,0,0,0,2.474987,13.18586,4847.25,0,14.14007,-2.474987,2.46E+07
149.6,-2.493222,-4851.891,28.30939,0,0,0,0,0,2.493222,13.28302,4851.891,0,14.25204,-2.493222,2.45E+07
150.7,-2.511757,-4859.349,28.35291,0,0,0,0,0,2.511757,13.38176,4859.349,0,14.36598,-2.511757,2.46E+07
151.8,-2.530172,-4865.532,28.38899,0,0,0,0,0,2.530172,13.47987,4865.532,0,14.47931,-2.530172,2.46E+07
152.9,-2.548348,-4868.768,28.40787,0,0,0,0,0,2.548348,13.57671,4868.768,0,14.5913,-2.548348,2.46E+07
154,-2.566465,-4871.828,28.42572,0,0,0,0,0,2.566464,13.67323,4871.828,0,14.70304,-2.566465,2.45E+07
155.1,-2.585179,-4879.229,28.4689,0,0,0,0,0,2.585179,13.77293,4879.229,0,14.8186,-2.585179,2.45E+07
156.2,-2.603474,-4883.596,28.49438,0,0,0,0,0,2.603474,13.8704,4883.596,0,14.93171,-2.603474,2.45E+07
157.3,-2.62165,-4887.822,28.51904,0,0,0,0,0,2.62165,13.96724,4887.822,0,15.0442,-2.62165,2.45E+07
158.4,-2.640006,-4892.863,28.54845,0,0,0,0,0,2.640006,14.06503,4892.863,0,15.15793,-2.640006,2.45E+07
159.5,-2.658421,-4898.788,28.58302,0,0,0,0,0,2.658421,14.16314,4898.788,0,15.27216,-2.658421,2.45E+07
160.6,-2.676716,-4903.094,28.60815,0,0,0,0,0,2.676716,14.26061,4903.094,0,15.38578,-2.676716,2.45E+07
161.7,-2.695131,-4910.286,28.65011,0,0,0,0,0,2.695131,14.35872,4910.286,0,15.50028,-2.695131,2.45E+07
162.8,-2.713308,-4915.725,28.68184,0,0,0,0,0,2.713308,14.45555,4915.725,0,15.61341,-2.713308,2.45E+07
163.9,-2.731663,-4920.33,28.70872,0,0,0,0,0,2.731663,14.55334,4920.33,0,15.72779,-2.731663,2.45E+07
165,-2.750197,-4926.334,28.74375,0,0,0,0,0,2.750197,14.65209,4926.334,0,15.84342,-2.750197,2.45E+07
166.1,-2.768493,-4928.887,28.75864,0,0,0,0,0,2.768493,14.74956,4928.887,0,15.9577,-2.768493,2.45E+07
167.2,-2.78649,-4931.582,28.77437,0,0,0,0,0,2.78649,14.84544,4931.582,0,16.07023,-2.78649,2.45E+07
168.3,-2.804965,-4938.102,28.81241,0,0,0,0,0,2.804965,14.94387,4938.102,0,16.18588,-2.804965,2.45E+07
169.4,-2.823619,-4945.501,28.85559,0,0,0,0,0,2.823619,15.04325,4945.501,0,16.30279,-2.823619,2.45E+07
170.5,-2.841735,-4947.668,28.86823,0,0,0,0,0,2.841735,15.13977,4947.668,0,16.41647,-2.841735,2.45E+07
171.6,-2.860031,-4952.774,28.89802,0,0,0,0,0,2.860031,15.23724,4952.774,0,16.53139,-2.860031,2.45E+07
172.7,-2.878326,-4957.338,28.92464,0,0,0,0,0,2.878326,15.33472,4957.337,0,16.64645,-2.878326,2.45E+07
173.8,-2.896801,-4962.586,28.95527,0,0,0,0,0,2.896801,15.43315,4962.586,0,16.76278,-2.896801,2.45E+07
174.9,-2.915157,-4968.316,28.9887,0,0,0,0,0,2.915157,15.53094,4968.316,0,16.87848,-2.915157,2.45E+07
176,-2.933393,-4971.44,29.00693,0,0,0,0,0,2.933393,15.62809,4971.44,0,16.99357,-2.933393,2.45E+07
177.1,-2.951568,-4975.085,29.0282,0,0,0,0,0,2.951568,15.72493,4975.085,0,17.1084,-2.951568,2.45E+07
178.2,-2.970163,-4983.626,29.07803,0,0,0,0,0,2.970163,15.82399,4983.626,0,17.22602,-2.970163,2.45E+07
179.3,-2.988578,-4989.131,29.11015,0,0,0,0,0,2.988578,15.9221,4989.131,0,17.34264,-2.988578,2.45E+07
180.4,-3.006515,-4991.234,29.12242,0,0,0,0,0,3.006515,16.01766,4991.234,0,17.45637,-3.006515,2.45E+07
181.5,-3.02493,-4996.679,29.15419,0,0,0,0,0,3.02493,16.11577,4996.679,0,17.57326,-3.02493,2.45E+07
182.6,-3.043644,-5004.453,29.19955,0,0,0,0,0,3.043644,16.21547,5004.453,0,17.69218,-3.043644,2.45E+07
183.7,-3.061761,-5007.653,29.21822,0,0,0,0,0,3.061761,16.31199,5007.653,0,17.80745,-3.061761,2.45E+07
184.8,-3.079996,-5012.1,29.24417,0,0,0,0,0,3.079996,16.40914,5012.101,0,17.9236,-3.079996,2.44E+07
185.9,-3.098412,-5018.307,29.28038,0,0,0,0,0,3.098412,16.50725,5018.307,0,18.04104,-3.098412,2.44E+07
187,-3.116707,-5023.286,29.30943,0,0,0,0,0,3.116707,16.60473,5023.286,0,18.15785,-3.116707,2.44E+07
188.1,-3.135122,-5030.672,29.35253,0,0,0,0,0,3.135122,16.70284,5030.672,0,18.27557,-3.135122,2.44E+07
189.2,-3.153418,-5036.215,29.38487,0,0,0,0,0,3.153418,16.80031,5036.214,0,18.39265,-3.153418,2.44E+07
190.3,-3.171654,-5040.893,29.41216,0,0,0,0,0,3.171654,16.89746,5040.893,0,18.50949,-3.171654,2.44E+07
191.4,-3.190069,-5046.361,29.44407,0,0,0,0,0,3.190069,16.99557,5046.361,0,18.62762,-3.190069,2.44E+07
192.5,-3.208544,-5052.17,29.47796,0,0,0,0,0,3.208544,17.094,5052.17,0,18.74627,-3.208544,2.44E+07
193.6,-3.22666,-5055.378,29.49668,0,0,0,0,0,3.22666,17.19052,5055.378,0,18.86276,-3.22666,2.44E+07
194.7,-3.244896,-5061.655,29.53331,0,0,0,0,0,3.244896,17.28767,5061.655,0,18.98015,-3.244896,2.44E+07
195.8,-3.26349,-5070.723,29.58622,0,0,0,0,0,3.26349,17.38674,5070.723,0,19.09999,-3.26349,2.44E+07
196.9,-3.281786,-5075.077,29.61162,0,0,0,0,0,3.281786,17.48421,5075.077,0,19.21805,-3.281786,2.44E+07
198,-3.300141,-5080.023,29.64048,0,0,0,0,0,3.300141,17.582,5080.022,0,19.33663,-3.300141,2.44E+07
199.1,-3.318437,-5087.23,29.68253,0,0,0,0,0,3.318437,17.67947,5087.23,0,19.45497,-3.318437,2.44E+07
200.2,-3.336732,-5093.695,29.72025,0,0,0,0,0,3.336732,17.77694,5093.695,0,19.57344,-3.336732,2.44E+07
201.3,-3.355088,-5099.932,29.75664,0,0,0,0,0,3.355088,17.87473,5099.932,0,19.69245,-3.355088,2.44E+07
202.4,-3.373503,-5106.43,29.79456,0,0,0,0,0,3.373503,17.97285,5106.43,0,19.81198,-3.373503,2.44E+07
203.5,-3.391619,-5110.182,29.81645,0,0,0,0,0,3.391619,18.06936,5110.182,0,19.92972,-3.391619,2.44E+07
204.6,-3.409975,-5117.271,29.85781,0,0,0,0,0,3.409975,18.16715,5117.271,0,20.04915,-3.409975,2.44E+07
205.7,-3.42845,-5124.059,29.89742,0,0,0,0,0,3.42845,18.26558,5124.059,0,20.1695,-3.42845,2.44E+07
206.8,-3.446805,-5129.891,29.93145,0,0,0,0,0,3.446805,18.36337,5129.891,0,20.28922,-3.446805,2.44E+07
207.9,-3.464981,-5133.402,29.95193,0,0,0,0,0,3.464981,18.46021,5133.402,0,20.4079,-3.464981,2.44E+07
209,-3.483277,-5139.827,29.98942,0,0,0,0,0,3.483277,18.55768,5139.828,0,20.52751,-3.483277,2.44E+07
210.1,-3.501751,-5144.797,30.01842,0,0,0,0,0,3.501751,18.65611,5144.797,0,20.64844,-3.501751,2.44E+07
211.2,-3.520047,-5150.97,30.05444,0,0,0,0,0,3.520047,18.75358,5150.97,0,20.76834,-3.520047,2.44E+07
212.3,-3.538402,-5156.144,30.08462,0,0,0,0,0,3.538402,18.85137,5156.144,0,20.88878,-3.538402,2.44E+07
213.4,-3.556638,-5160.654,30.11094,0,0,0,0,0,3.556638,18.94853,5160.654,0,21.00857,-3.556638,2.44E+07
214.5,-3.575053,-5166.089,30.14265,0,0,0,0,0,3.575053,19.04663,5166.088,0,21.12969,-3.575053,2.44E+07
215.6,-3.593409,-5173.392,30.18526,0,0,0,0,0,3.593408,19.14442,5173.392,0,21.25056,-3.593409,2.44E+07
216.7,-3.611645,-5178.13,30.2129,0,0,0,0,0,3.611645,19.24158,5178.13,0,21.3708,-3.611645,2.44E+07
217.8,-3.62994,-5183.376,30.24352,0,0,0,0,0,3.62994,19.33905,5183.376,0,21.49157,-3.62994,2.44E+07
218.9,-3.648415,-5189.506,30.27928,0,0,0,0,0,3.648415,19.43748,5189.506,0,21.61367,-3.648415,2.44E+07
220,-3.666771,-5194.288,30.30718,0,0,0,0,0,3.666771,19.53527,5194.288,0,21.73513,-3.666771,2.44E+07
221.1,-3.684947,-5200.279,30.34214,0,0,0,0,0,3.684947,19.63211,5200.279,0,21.85554,-3.684947,2.44E+07
222.2,-3.703242,-5206.912,30.38084,0,0,0,0,0,3.703242,19.72958,5206.912,0,21.9769,-3.703242,2.44E+07
223.3,-3.721777,-5213.657,30.42019,0,0,0,0,0,3.721777,19.82833,5213.657,0,22.09999,-3.721777,2.44E+07
224.4,-3.740012,-5218.062,30.4459,0,0,0,0,0,3.740012,19.92548,5218.062,0,22.22125,-3.740012,2.44E+07
225.5,-3.758189,-5222.997,30.47469,0,0,0,0,0,3.758189,20.02232,5222.998,0,22.34225,-3.758189,2.44E+07
226.6,-3.776664,-5230.175,30.51658,0,0,0,0,0,3.776664,20.12074,5230.175,0,22.4654,-3.776664,2.44E+07
227.7,-3.795079,-5237.082,30.55688,0,0,0,0,0,3.795079,20.21885,5237.083,0,22.5883,-3.795079,2.44E+07
228.8,-3.813374,-5242.01,30.58563,0,0,0,0,0,3.813374,20.31632,5242.01,0,22.71054,-3.813374,2.44E+07
229.9,-3.83155,-5245.163,30.60402,0,0,0,0,0,3.83155,20.41316,5245.163,0,22.83215,-3.83155,2.44E+07
231,-3.849906,-5251.054,30.6384,0,0,0,0,0,3.849906,20.51095,5251.054,0,22.95509,-3.849906,2.44E+07
232.1,-3.868381,-5258.704,30.68303,0,0,0,0,0,3.868381,20.60938,5258.704,0,23.079,-3.868381,2.44E+07
233.2,-3.886796,-5266.266,30.72715,0,0,0,0,0,3.886796,20.70749,5266.266,0,23.20265,-3.886796,2.44E+07
234.3,-3.904912,-5269.526,30.74618,0,0,0,0,0,3.904912,20.80401,5269.526,0,23.32445,-3.904912,2.43E+07
235.4,-3.923208,-5275.017,30.77821,0,0,0,0,0,3.923208,20.90148,5275.017,0,23.4476,-3.923208,2.43E+07
236.5,-3.941802,-5283.574,30.82814,0,0,0,0,0,3.941802,21.00054,5283.574,0,23.57292,-3.941802,2.44E+07
237.6,-3.960038,-5289.163,30.86075,0,0,0,0,0,3.960038,21.0977,5289.164,0,23.69598,-3.960038,2.43E+07
238.7,-3.978154,-5293.519,30.88617,0,0,0,0,0,3.978154,21.19421,5293.519,0,23.81838,-3.978154,2.43E+07
239.8,-3.996749,-5302.812,30.94039,0,0,0,0,0,3.996749,21.29328,5302.812,0,23.94417,-3.996749,2.44E+07
240.9,-4.014985,-5308.063,30.97103,0,0,0,0,0,4.014985,21.39043,5308.063,0,24.06768,-4.014985,2.43E+07
242,-4.03334,-5314.895,31.01089,0,0,0,0,0,4.03334,21.48823,5314.895,0,24.19216,-4.03334,2.43E+07
243.1,-4.051635,-5320.428,31.04317,0,0,0,0,0,4.051635,21.5857,5320.428,0,24.31638,-4.051635,2.43E+07
244.2,-4.069931,-5326.705,31.0798,0,0,0,0,0,4.069931,21.68317,5326.706,0,24.44077,-4.069931,2.43E+07
245.3,-4.088346,-5332.606,31.11423,0,0,0,0,0,4.088346,21.78128,5332.606,0,24.56612,-4.088346,2.43E+07
246.4,-4.106821,-5339.283,31.15318,0,0,0,0,0,4.106822,21.87971,5339.283,0,24.69204,-4.106821,2.43E+07
247.5,-4.124997,-5342.754,31.17344,0,0,0,0,0,4.124997,21.97654,5342.754,0,24.81607,-4.124997,2.43E+07
248.6,-4.143173,-5347.524,31.20127,0,0,0,0,0,4.143173,22.07338,5347.523,0,24.94026,-4.143173,2.43E+07
249.7,-4.161768,-5357.397,31.25888,0,0,0,0,0,4.161768,22.17245,5357.397,0,25.06746,-4.161768,2.43E+07
250.8,-4.180004,-5361.962,31.28551,0,0,0,0,0,4.180004,22.2696,5361.962,0,25.19238,-4.180004,2.43E+07
251.9,-4.198299,-5366.349,31.31111,0,0,0,0,0,4.198299,22.36707,5366.349,0,25.31785,-4.198299,2.43E+07
253,-4.216595,-5373.481,31.35272,0,0,0,0,0,4.216595,22.46454,5373.481,0,25.44349,-4.216595,2.43E+07
254.1,-4.23495,-5380.003,31.39077,0,0,0,0,0,4.23495,22.56233,5380.002,0,25.56969,-4.23495,2.43E+07
255.2,-4.253425,-5387.106,31.43222,0,0,0,0,0,4.253425,22.66076,5387.106,0,25.69687,-4.253425,2.43E+07
256.3,-4.271721,-5390.592,31.45256,0,0,0,0,0,4.271721,22.75824,5390.592,0,25.82299,-4.271721,2.43E+07
257.4,-4.289837,-5394.127,31.47319,0,0,0,0,0,4.289837,22.85475,5394.127,0,25.94802,-4.289837,2.43E+07
258.5,-4.308312,-5402.322,31.521,0,0,0,0,0,4.308312,22.95318,5402.322,0,26.07569,-4.308312,2.43E+07
259.6,-4.326787,-5410.825,31.57062,0,0,0,0,0,4.326787,23.05161,5410.825,0,26.20352,-4.326787,2.43E+07
260.7,-4.345083,-5416.03,31.60098,0,0,0,0,0,4.345083,23.14908,5416.03,0,26.33028,-4.345083,2.43E+07
261.8,-4.363199,-5418.898,31.61772,0,0,0,0,0,4.363198,23.2456,5418.898,0,26.45594,-4.363199,2.43E+07
262.9,-4.381494,-5424.568,31.6508,0,0,0,0,0,4.381494,23.34307,5424.567,0,26.58302,-4.381494,2.43E+07
264,-4.400089,-5432.824,31.69897,0,0,0,0,0,4.400089,23.44213,5432.824,0,26.71233,-4.400089,2.43E+07
265.1,-4.418384,-5439.542,31.73817,0,0,0,0,0,4.418384,23.53961,5439.542,0,26.83973,-4.418384,2.43E+07
266.2,-4.43656,-5445.645,31.77378,0,0,0,0,0,4.43656,23.63644,5445.645,0,26.96646,-4.43656,2.43E+07
267.3,-4.454856,-5450.166,31.80016,0,0,0,0,0,4.454856,23.73392,5450.166,0,27.09419,-4.454856,2.43E+07
268.4,-4.473451,-5460.075,31.85797,0,0,0,0,0,4.473451,23.83298,5460.075,0,27.22416,-4.473451,2.43E+07
269.5,-4.491686,-5466.427,31.89504,0,0,0,0,0,4.491686,23.93013,5466.427,0,27.3518,-4.491686,2.43E+07
270.6,-4.509862,-5472.185,31.92863,0,0,0,0,0,4.509862,24.02697,5472.185,0,27.47918,-4.509862,2.43E+07
271.7,-4.528218,-5478.803,31.96725,0,0,0,0,0,4.528218,24.12476,5478.803,0,27.60798,-4.528218,2.43E+07
272.8,-4.546812,-5487.604,32.0186,0,0,0,0,0,4.546812,24.22383,5487.604,0,27.73863,-4.546812,2.43E+07
273.9,-4.565048,-5494.346,32.05794,0,0,0,0,0,4.565048,24.32098,5494.347,0,27.86692,-4.565048,2.43E+07
275,-4.583284,-5501.275,32.09837,0,0,0,0,0,4.583284,24.41813,5501.275,0,27.99538,-4.583284,2.43E+07
276.1,-4.60158,-5508.141,32.13842,0,0,0,0,0,4.60158,24.51561,5508.141,0,28.12443,-4.60158,2.43E+07
277.2,-4.620054,-5517.329,32.19204,0,0,0,0,0,4.620054,24.61403,5517.329,0,28.2549,-4.620054,2.43E+07
278.3,-4.63847,-5525.076,32.23723,0,0,0,0,0,4.63847,24.71214,5525.076,0,28.38513,-4.63847,2.43E+07
279.4,-4.656645,-5531.365,32.27393,0,0,0,0,0,4.656645,24.80898,5531.365,0,28.51384,-4.656645,2.43E+07
280.5,-4.674941,-5538.305,32.31442,0,0,0,0,0,4.674941,24.90645,5538.305,0,28.64356,-4.674941,2.43E+07
281.6,-4.693416,-5546.845,32.36425,0,0,0,0,0,4.693416,25.00488,5546.845,0,28.77471,-4.693416,2.43E+07
282.7,-4.711831,-5553.909,32.40547,0,0,0,0,0,4.711832,25.10299,5553.91,0,28.90562,-4.711831,2.43E+07
283.8,-4.730007,-5559.394,32.43747,0,0,0,0,0,4.730007,25.19982,5559.394,0,29.03499,-4.730007,2.43E+07
284.9,-4.748243,-5566.749,32.48038,0,0,0,0,0,4.748243,25.29698,5566.749,0,29.16496,-4.748243,2.43E+07
286,-4.766718,-5575.19,32.52964,0,0,0,0,0,4.766718,25.39541,5575.189,0,29.29681,-4.766718,2.43E+07
287.1,-4.785133,-5584.09,32.58157,0,0,0,0,0,4.785133,25.49352,5584.09,0,29.4284,-4.785133,2.43E+07
288.2,-4.803429,-5589.545,32.6134,0,0,0,0,0,4.803429,25.59099,5589.545,0,29.55932,-4.803429,2.43E+07
289.3,-4.821664,-5596.411,32.65345,0,0,0,0,0,4.821664,25.68814,5596.411,0,29.68997,-4.821664,2.43E+07
290.4,-4.83996,-5604.041,32.69798,0,0,0,0,0,4.83996,25.78562,5604.042,0,29.82122,-4.83996,2.43E+07
291.5,-4.858495,-5614.209,32.7573,0,0,0,0,0,4.858494,25.88436,5614.208,0,29.95436,-4.858495,2.43E+07
292.6,-4.876671,-5620.781,32.79565,0,0,0,0,0,4.876671,25.9812,5620.781,0,30.0851,-4.876671,2.43E+07
293.7,-4.894967,-5629.826,32.84843,0,0,0,0,0,4.894967,26.07867,5629.827,0,30.21688,-4.894967,2.43E+07
294.8,-4.913322,-5637.129,32.89103,0,0,0,0,0,4.913322,26.17646,5637.128,0,30.34926,-4.913322,2.43E+07
295.9,-4.931797,-5646.264,32.94433,0,0,0,0,0,4.931797,26.27489,5646.264,0,30.48267,-4.931797,2.43E+07
297,-4.950032,-5653.515,32.98664,0,0,0,0,0,4.950032,26.37204,5653.516,0,30.61454,-4.950032,2.43E+07
298.1,-4.968268,-5661.238,33.0317,0,0,0,0,0,4.968268,26.4692,5661.238,0,30.74658,-4.968268,2.43E+07
299.2,-4.986684,-5670.394,33.08512,0,0,0,0,0,4.986684,26.56731,5670.394,0,30.8801,-4.986684,2.43E+07
300.3,-5.005039,-5677.939,33.12915,0,0,0,0,0,5.005039,26.6651,5677.938,0,31.01335,-5.005039,2.43E+07
301.4,-5.023454,-5686.743,33.18052,0,0,0,0,0,5.023455,26.76321,5686.743,0,31.14723,-5.023454,2.43E+07
302.5,-5.04169,-5695.992,33.23448,0,0,0,0,0,5.04169,26.86036,5695.992,0,31.27997,-5.04169,2.43E+07
303.6,-5.059926,-5704.314,33.28304,0,0,0,0,0,5.059926,26.95752,5704.314,0,31.41289,-5.059926,2.43E+07
304.7,-5.07852,-5714.799,33.34422,0,0,0,0,0,5.07852,27.05658,5714.799,0,31.54861,-5.07852,2.43E+07
305.8,-5.096756,-5723.536,33.39519,0,0,0,0,0,5.096756,27.15373,5723.536,0,31.68189,-5.096756,2.43E+07
306.9,-5.114932,-5731.503,33.44168,0,0,0,0,0,5.114932,27.25057,5731.503,0,31.81491,-5.114932,2.43E+07
308,-5.133407,-5741.267,33.49865,0,0,0,0,0,5.133407,27.349,5741.267,0,31.9503,-5.133407,2.43E+07
309.1,-5.151763,-5749.746,33.54812,0,0,0,0,0,5.151763,27.44679,5749.746,0,32.085,-5.151763,2.43E+07
310.2,-5.170118,-5757.751,33.59483,0,0,0,0,0,5.170118,27.54458,5757.751,0,32.21987,-5.170118,2.43E+07
311.3,-5.188294,-5765.974,33.64281,0,0,0,0,0,5.188294,27.64142,5765.974,0,32.35361,-5.188294,2.43E+07
312.4,-5.20653,-5776.221,33.7026,0,0,0,0,0,5.20653,27.73857,5776.221,0,32.48797,-5.20653,2.44E+07
313.5,-5.225124,-5787.508,33.76845,0,0,0,0,0,5.225124,27.83764,5787.508,0,32.62515,-5.225124,2.44E+07
314.6,-5.24348,-5795.964,33.81779,0,0,0,0,0,5.24348,27.93543,5795.964,0,32.76076,-5.24348,2.44E+07
315.7,-5.261655,-5804.581,33.86806,0,0,0,0,0,5.261655,28.03226,5804.581,0,32.89522,-5.261655,2.44E+07
316.8,-5.279951,-5813.895,33.92241,0,0,0,0,0,5.279951,28.12973,5813.895,0,33.03076,-5.279951,2.44E+07
317.9,-5.298546,-5825.795,33.99184,0,0,0,0,0,5.298545,28.2288,5825.794,0,33.16869,-5.298546,2.44E+07
319,-5.316662,-5833.726,34.03812,0,0,0,0,0,5.316661,28.32532,5833.727,0,33.30326,-5.316662,2.44E+07
320.1,-5.334957,-5840.878,34.07985,0,0,0,0,0,5.334958,28.42279,5840.878,0,33.43934,-5.334957,2.44E+07
321.2,-5.353432,-5852.286,34.14641,0,0,0,0,0,5.353433,28.52122,5852.286,0,33.57695,-5.353432,2.44E+07
322.3,-5.371788,-5862.163,34.20404,0,0,0,0,0,5.371789,28.61901,5862.164,0,33.71386,-5.371788,2.44E+07
323.4,-5.390084,-5870.95,34.25531,0,0,0,0,0,5.390083,28.71648,5870.95,0,33.8505,-5.390084,2.44E+07
324.5,-5.408319,-5877.389,34.29288,0,0,0,0,0,5.408319,28.81363,5877.389,0,33.98689,-5.408319,2.44E+07
325.6,-5.426555,-5885.159,34.33822,0,0,0,0,0,5.426555,28.91079,5885.16,0,34.12346,-5.426555,2.44E+07
326.7,-5.44509,-5895.889,34.40082,0,0,0,0,0,5.44509,29.00953,5895.889,0,34.26246,-5.44509,2.44E+07
327.8,-5.463445,-5903.39,34.44459,0,0,0,0,0,5.463445,29.10732,5903.39,0,34.40031,-5.463445,2.44E+07
328.9,-5.481561,-5911.001,34.489,0,0,0,0,0,5.481561,29.20384,5911.001,0,34.53654,-5.481561,2.44E+07
330,-5.500036,-5922.586,34.55659,0,0,0,0,0,5.500036,29.30227,5922.586,0,34.67567,-5.500036,2.44E+07
331.1,-5.518451,-5933.633,34.62105,0,0,0,0,0,5.518451,29.40038,5933.633,0,34.81454,-5.518451,2.44E+07
332.2,-5.536747,-5940.801,34.66287,0,0,0,0,0,5.536747,29.49785,5940.801,0,34.9527,-5.536747,2.44E+07
333.3,-5.555042,-5948.259,34.70639,0,0,0,0,0,5.555042,29.59532,5948.259,0,35.09105,-5.555042,2.44E+07
334.4,-5.573457,-5957.286,34.75906,0,0,0,0,0,5.573457,29.69343,5957.286,0,35.2305,-5.573457,2.44E+07
335.5,-5.591753,-5963.897,34.79763,0,0,0,0,0,5.591753,29.79091,5963.896,0,35.36924,-5.591753,2.44E+07
336.6,-5.610168,-5972.219,34.84619,0,0,0,0,0,5.610168,29.88902,5972.219,0,35.50907,-5.610168,2.44E+07
337.7,-5.628464,-5979.281,34.88739,0,0,0,0,0,5.628464,29.98649,5979.281,0,35.6482,-5.628464,2.44E+07
338.8,-5.646521,-5985.028,34.92093,0,0,0,0,0,5.646521,30.08269,5985.028,0,35.78569,-5.646521,2.44E+07
339.9,-5.665055,-5995.423,34.98158,0,0,0,0,0,5.665055,30.18143,5995.422,0,35.92702,-5.665055,2.44E+07
341,-5.68353,-6004.077,35.03207,0,0,0,0,0,5.68353,30.27986,6004.077,0,36.0681,-5.68353,2.44E+07
342.1,-5.701646,-6009.119,35.06149,0,0,0,0,0,5.701646,30.37638,6009.119,0,36.20663,-5.701646,2.44E+07
343.2,-5.720002,-6016.773,35.10615,0,0,0,0,0,5.720002,30.47417,6016.773,0,36.34718,-5.720002,2.44E+07
344.3,-5.738357,-6024.973,35.15399,0,0,0,0,0,5.738357,30.57196,6024.973,0,36.48794,-5.738357,2.44E+07
345.4,-5.756832,-6034.077,35.20711,0,0,0,0,0,5.756832,30.67039,6034.077,0,36.62981,-5.756832,2.44E+07
346.5,-5.775128,-6042.823,35.25814,0,0,0,0,0,5.775128,30.76786,6042.823,0,36.7705,-5.775128,2.44E+07
347.6,-5.793304,-6051.236,35.30723,0,0,0,0,0,5.793303,30.8647,6051.236,0,36.91047,-5.793304,2.44E+07
348.7,-5.811659,-6060.99,35.36414,0,0,0,0,0,5.811659,30.96249,6060.99,0,37.05202,-5.811659,2.44E+07
349.8,-5.830194,-6073.901,35.43947,0,0,0,0,0,5.830194,31.06124,6073.901,0,37.19516,-5.830194,2.44E+07
350.9,-5.84849,-6085.746,35.50859,0,0,0,0,0,5.84849,31.15871,6085.746,0,37.33665,-5.84849,2.44E+07
352,-5.866546,-6091.804,35.54393,0,0,0,0,0,5.866546,31.25491,6091.804,0,37.47648,-5.866546,2.44E+07
353.1,-5.884961,-6103.44,35.61182,0,0,0,0,0,5.884961,31.35302,6103.44,0,37.6193,-5.884961,2.44E+07
354.2,-5.903496,-6116.903,35.69038,0,0,0,0,0,5.903496,31.45176,6116.903,0,37.76325,-5.903496,2.45E+07
355.3,-5.921731,-6129.586,35.76438,0,0,0,0,0,5.921731,31.54892,6129.586,0,37.90508,-5.921731,2.45E+07
356.4,-5.939967,-6140.835,35.83002,0,0,0,0,0,5.939967,31.64607,6140.835,0,38.04711,-5.939967,2.45E+07
357.5,-5.958323,-6151.646,35.89309,0,0,0,0,0,5.958323,31.74386,6151.646,0,38.19028,-5.958323,2.45E+07
358.6,-5.976798,-6165.038,35.97123,0,0,0,0,0,5.976798,31.84229,6165.039,0,38.33459,-5.976798,2.45E+07
359.7,-5.995153,-6178.233,36.04822,0,0,0,0,0,5.995153,31.94008,6178.233,0,38.47817,-5.995153,2.45E+07
360.8,-6.013209,-6188.743,36.10954,0,0,0,0,0,6.013209,32.03628,6188.743,0,38.61961,-6.013209,2.45E+07
361.9,-6.031625,-6200.677,36.17918,0,0,0,0,0,6.031624,32.13439,6200.677,0,38.76407,-6.031625,2.46E+07
363,-6.050279,-6215.895,36.26797,0,0,0,0,0,6.050279,32.23377,6215.896,0,38.91062,-6.050279,2.46E+07
364.1,-6.068515,-6228.105,36.33921,0,0,0,0,0,6.068515,32.33092,6228.105,0,39.05409,-6.068515,2.46E+07
365.2,-6.086511,-6238.082,36.39742,0,0,0,0,0,6.086512,32.42681,6238.082,0,39.19589,-6.086511,2.46E+07
366.3,-6.104867,-6251.307,36.47459,0,0,0,0,0,6.104867,32.5246,6251.308,0,39.3407,-6.104867,2.46E+07
367.4,-6.123521,-6267.388,36.56841,0,0,0,0,0,6.123522,32.62398,6267.388,0,39.48811,-6.123521,2.46E+07
368.5,-6.141817,-6279.589,36.6396,0,0,0,0,0,6.141817,32.72145,6279.589,0,39.63288,-6.141817,2.47E+07
369.6,-6.160052,-6291.809,36.71091,0,0,0,0,0,6.160052,32.8186,6291.81,0,39.77738,-6.160052,2.47E+07
370.7,-6.178229,-6303.083,36.77669,0,0,0,0,0,6.178229,32.91544,6303.083,0,39.92163,-6.178229,2.47E+07
371.8,-6.196704,-6318.705,36.86784,0,0,0,0,0,6.196703,33.01387,6318.705,0,40.06846,-6.196704,2.47E+07
372.9,-6.215178,-6331.903,36.94484,0,0,0,0,0,6.215178,33.1123,6331.903,0,40.21551,-6.215178,2.47E+07
374,-6.233354,-6342.68,37.00772,0,0,0,0,0,6.233354,33.20913,6342.68,0,40.36038,-6.233354,2.47E+07
375.1,-6.25165,-6353.601,37.07144,0,0,0,0,0,6.25165,33.30661,6353.601,0,40.50643,-6.25165,2.47E+07
376.2,-6.270125,-6369.721,37.1655,0,0,0,0,0,6.270125,33.40504,6369.721,0,40.65412,-6.270125,2.48E+07
377.3,-6.28854,-6384.982,37.25454,0,0,0,0,0,6.28854,33.50314,6384.982,0,40.80155,-6.28854,2.48E+07
378.4,-6.306716,-6397.029,37.32483,0,0,0,0,0,6.306716,33.59998,6397.029,0,40.94728,-6.306716,2.48E+07
379.5,-6.324952,-6409.44,37.39725,0,0,0,0,0,6.324953,33.69714,6409.44,0,41.09371,-6.324952,2.48E+07
380.6,-6.343367,-6423.53,37.47946,0,0,0,0,0,6.343367,33.79524,6423.53,0,41.24178,-6.343367,2.48E+07
381.7,-6.361842,-6438.643,37.56764,0,0,0,0,0,6.361842,33.89367,6438.643,0,41.39057,-6.361842,2.48E+07
382.8,-6.380138,-6450.8,37.63857,0,0,0,0,0,6.380137,33.99114,6450.8,0,41.53813,-6.380138,2.48E+07
383.9,-6.398314,-6462.629,37.70759,0,0,0,0,0,6.398314,34.08798,6462.628,0,41.68493,-6.398314,2.49E+07
385,-6.416609,-6473.31,37.76991,0,0,0,0,0,6.416609,34.18545,6473.31,0,41.83293,-6.416609,2.49E+07
386.1,-6.435084,-6485.936,37.84358,0,0,0,0,0,6.435084,34.28388,6485.936,0,41.98259,-6.435084,2.49E+07
387.2,-6.45344,-6497.203,37.90932,0,0,0,0,0,6.45344,34.38167,6497.203,0,42.13151,-6.45344,2.49E+07
388.3,-6.471556,-6507.781,37.97104,0,0,0,0,0,6.471556,34.47819,6507.781,0,42.27871,-6.471556,2.49E+07
389.4,-6.490031,-6520.101,38.04292,0,0,0,0,0,6.490031,34.57661,6520.101,0,42.42904,-6.490031,2.49E+07
390.5,-6.508506,-6531.249,38.10797,0,0,0,0,0,6.508506,34.67505,6531.249,0,42.57961,-6.508506,2.49E+07
391.6,-6.526742,-6541.527,38.16794,0,0,0,0,0,6.526742,34.7722,6541.527,0,42.72844,-6.526742,2.49E+07
392.7,-6.544977,-6554.963,38.24633,0,0,0,0,0,6.544977,34.86935,6554.963,0,42.87749,-6.544977,2.49E+07
393.8,-6.563213,-6569.971,38.3339,0,0,0,0,0,6.563212,34.9665,6569.971,0,43.02677,-6.563213,2.49E+07
394.9,-6.581807,-6586.041,38.42767,0,0,0,0,0,6.581808,35.06557,6586.042,0,43.17922,-6.581807,2.50E+07
396,-6.600044,-6601.046,38.51521,0,0,0,0,0,6.600044,35.16273,6601.046,0,43.32895,-6.600044,2.50E+07
397.1,-6.618219,-6616.334,38.60442,0,0,0,0,0,6.618219,35.25956,6616.334,0,43.47841,-6.618219,2.50E+07
398.2,-6.636575,-6633.061,38.70201,0,0,0,0,0,6.636575,35.35735,6633.062,0,43.62958,-6.636575,2.50E+07
399.3,-6.65499,-6648.746,38.79353,0,0,0,0,0,6.65499,35.45546,6648.746,0,43.78146,-6.65499,2.50E+07
400.4,-6.673465,-6665.765,38.89283,0,0,0,0,0,6.673465,35.55389,6665.765,0,43.93408,-6.673465,2.51E+07
401.5,-6.691521,-6680.56,38.97916,0,0,0,0,0,6.691521,35.65009,6680.56,0,44.08346,-6.691521,2.51E+07
402.6,-6.709817,-6699.782,39.09131,0,0,0,0,0,6.709816,35.74756,6699.782,0,44.23504,-6.709817,2.51E+07
403.7,-6.728412,-6718.812,39.20234,0,0,0,0,0,6.728412,35.84663,6718.812,0,44.38935,-6.728412,2.51E+07
404.8,-6.746827,-6736.809,39.30735,0,0,0,0,0,6.746827,35.94474,6736.809,0,44.5424,-6.746827,2.52E+07
405.9,-6.764823,-6752.101,39.39658,0,0,0,0,0,6.764823,36.04062,6752.101,0,44.69219,-6.764823,2.52E+07
407,-6.783238,-6769.911,39.50049,0,0,0,0,0,6.783238,36.13873,6769.911,0,44.8457,-6.783238,2.52E+07
408.1,-6.801654,-6790.088,39.61822,0,0,0,0,0,6.801653,36.23683,6790.088,0,44.99944,-6.801654,2.53E+07
409.2,-6.81989,-6808.272,39.72432,0,0,0,0,0,6.81989,36.33399,6808.272,0,45.15193,-6.81989,2.53E+07
410.3,-6.838365,-6827.774,39.83811,0,0,0,0,0,6.838364,36.43242,6827.774,0,45.30665,-6.838365,2.53E+07
411.4,-6.85672,-6847.451,39.95292,0,0,0,0,0,6.85672,36.53021,6847.451,0,45.46061,-6.85672,2.54E+07
412.5,-6.874896,-6866.35,40.06319,0,0,0,0,0,6.874896,36.62704,6866.35,0,45.61329,-6.874896,2.54E+07
413.6,-6.893371,-6886.826,40.18266,0,0,0,0,0,6.893371,36.72547,6886.826,0,45.76873,-6.893371,2.54E+07
414.7,-6.911667,-6906.925,40.29993,0,0,0,0,0,6.911667,36.82294,6906.925,0,45.9229,-6.911667,2.55E+07
415.8,-6.929783,-6926.129,40.41198,0,0,0,0,0,6.929783,36.91946,6926.129,0,46.07579,-6.929783,2.55E+07
416.9,-6.948496,-6949.217,40.54669,0,0,0,0,0,6.948496,37.01916,6949.217,0,46.23396,-6.948496,2.55E+07
418,-6.966732,-6968.667,40.66018,0,0,0,0,0,6.966733,37.11631,6968.667,0,46.38834,-6.966732,2.56E+07
419.1,-6.984848,-6987.56,40.77041,0,0,0,0,0,6.984848,37.21283,6987.56,0,46.54194,-6.984848,2.56E+07
420.2,-7.003323,-7008.978,40.89538,0,0,0,0,0,7.003324,37.31126,7008.979,0,46.69883,-7.003323,2.56E+07
421.3,-7.021679,-7031.905,41.02915,0,0,0,0,0,7.021679,37.40905,7031.905,0,46.85495,-7.021679,2.57E+07
422.4,-7.039914,-7048.735,41.12735,0,0,0,0,0,7.039915,37.5062,7048.735,0,47.01029,-7.039914,2.57E+07
423.5,-7.05839,-7070.062,41.25179,0,0,0,0,0,7.05839,37.60463,7070.062,0,47.16792,-7.05839,2.57E+07
424.6,-7.076685,-7089.904,41.36756,0,0,0,0,0,7.076685,37.70211,7089.904,0,47.32426,-7.076685,2.58E+07
425.7,-7.094861,-7108.126,41.47388,0,0,0,0,0,7.094862,37.79894,7108.126,0,47.47982,-7.094861,2.58E+07
426.8,-7.113516,-7129.506,41.59863,0,0,0,0,0,7.113516,37.89833,7129.506,0,47.63972,-7.113516,2.58E+07
427.9,-7.131692,-7148.102,41.70713,0,0,0,0,0,7.131691,37.99516,7148.102,0,47.79577,-7.131692,2.59E+07
429,-7.149808,-7165.889,41.81091,0,0,0,0,0,7.149808,38.09168,7165.889,0,47.95156,-7.149808,2.59E+07
430.1,-7.168402,-7190.076,41.95203,0,0,0,0,0,7.168402,38.19074,7190.076,0,48.1117,-7.168402,2.59E+07
431.2,-7.186877,-7212.614,42.08354,0,0,0,0,0,7.186877,38.28917,7212.614,0,48.27107,-7.186877,2.60E+07
432.3,-7.204874,-7230.15,42.18585,0,0,0,0,0,7.204873,38.38505,7230.149,0,48.42656,-7.204874,2.60E+07
433.4,-7.223408,-7252.578,42.31672,0,0,0,0,0,7.223408,38.4838,7252.578,0,48.58695,-7.223408,2.60E+07
434.5,-7.241644,-7274.665,42.44559,0,0,0,0,0,7.241644,38.58095,7274.665,0,48.74501,-7.241644,2.61E+07
435.6,-7.25994,-7295.854,42.56922,0,0,0,0,0,7.259941,38.67842,7295.854,0,48.90385,-7.25994,2.61E+07
436.7,-7.278415,-7320.132,42.71087,0,0,0,0,0,7.278415,38.77685,7320.132,0,49.06448,-7.278415,2.61E+07
437.8,-7.29671,-7342.096,42.83902,0,0,0,0,0,7.29671,38.87432,7342.096,0,49.22381,-7.29671,2.62E+07
438.9,-7.314887,-7362.011,42.95523,0,0,0,0,0,7.314887,38.97116,7362.011,0,49.38237,-7.314887,2.62E+07
440,-7.333481,-7387.982,43.10676,0,0,0,0,0,7.333481,39.07022,7387.982,0,49.54482,-7.333481,2.63E+07
441.1,-7.351777,-7410.207,43.23644,0,0,0,0,0,7.351777,39.1677,7410.208,0,49.70493,-7.351777,2.63E+07
442.2,-7.369773,-7428.417,43.34269,0,0,0,0,0,7.369773,39.26358,7428.417,0,49.86266,-7.369773,2.63E+07
443.3,-7.388308,-7454.178,43.493,0,0,0,0,0,7.388309,39.36232,7454.178,0,50.02538,-7.388308,2.64E+07
444.4,-7.406903,-7478.714,43.63615,0,0,0,0,0,7.406903,39.46139,7478.714,0,50.18888,-7.406903,2.64E+07
445.5,-7.424959,-7500.187,43.76144,0,0,0,0,0,7.424959,39.55759,7500.187,0,50.34791,-7.424959,2.65E+07
446.6,-7.443255,-7525.245,43.90765,0,0,0,0,0,7.443254,39.65506,7525.245,0,50.50931,-7.443255,2.65E+07
447.7,-7.46167,-7550.245,44.05352,0,0,0,0,0,7.46167,39.75317,7550.245,0,50.67202,-7.46167,2.65E+07
448.8,-7.480085,-7576.386,44.20604,0,0,0,0,0,7.480085,39.85128,7576.386,0,50.835,-7.480085,2.66E+07
449.9,-7.498321,-7601.682,44.35364,0,0,0,0,0,7.498321,39.94843,7601.682,0,50.99665,-7.498321,2.66E+07
451,-7.516617,-7624.631,44.48754,0,0,0,0,0,7.516617,40.04591,7624.631,0,51.1591,-7.516617,2.67E+07
452.1,-7.534972,-7649.177,44.63076,0,0,0,0,0,7.534972,40.1437,7649.177,0,51.32234,-7.534972,2.67E+07
453.2,-7.553387,-7676.15,44.78814,0,0,0,0,0,7.553387,40.24181,7676.15,0,51.48639,-7.553387,2.68E+07
454.3,-7.571862,-7702.157,44.93988,0,0,0,0,0,7.571863,40.34024,7702.157,0,51.65124,-7.571862,2.68E+07
455.4,-7.589858,-7723.847,45.06644,0,0,0,0,0,7.589858,40.43611,7723.847,0,51.81207,-7.589858,2.68E+07
456.5,-7.608154,-7751.671,45.22878,0,0,0,0,0,7.608154,40.53358,7751.671,0,51.97585,-7.608154,2.69E+07
457.6,-7.626868,-7782.09,45.40627,0,0,0,0,0,7.626868,40.63329,7782.09,0,52.14365,-7.626868,2.70E+07
458.7,-7.645164,-7807.839,45.55651,0,0,0,0,0,7.645164,40.73076,7807.839,0,52.30798,-7.645164,2.70E+07
459.8,-7.66322,-7830.63,45.68949,0,0,0,0,0,7.66322,40.82696,7830.63,0,52.47041,-7.66322,2.70E+07
460.9,-7.681635,-7855.791,45.83629,0,0,0,0,0,7.681635,40.92507,7855.791,0,52.63635,-7.681635,2.71E+07
462,-7.70017,-7884.279,46.00251,0,0,0,0,0,7.700171,41.02382,7884.279,0,52.80365,-7.70017,2.71E+07
463.1,-7.718406,-7908.445,46.14351,0,0,0,0,0,7.718406,41.12097,7908.445,0,52.96852,-7.718406,2.72E+07
464.2,-7.736702,-7934.071,46.29303,0,0,0,0,0,7.736701,41.21844,7934.071,0,53.1342,-7.736702,2.72E+07
465.3,-7.754877,-7959.854,46.44347,0,0,0,0,0,7.754878,41.31528,7959.854,0,53.29907,-7.754877,2.73E+07
466.4,-7.773353,-7988.242,46.6091,0,0,0,0,0,7.773352,41.4137,7988.242,0,53.46693,-7.773353,2.73E+07
467.5,-7.791888,-8017.403,46.77925,0,0,0,0,0,7.791888,41.51245,8017.402,0,53.63563,-7.791888,2.74E+07
468.6,-7.810063,-8042.646,46.92653,0,0,0,0,0,7.810063,41.60929,8042.646,0,53.80133,-7.810063,2.74E+07
469.7,-7.82812,-8067.433,47.07116,0,0,0,0,0,7.828121,41.70549,8067.433,0,53.96623,-7.82812,2.74E+07
470.8,-7.846775,-8099.14,47.25616,0,0,0,0,0,7.846774,41.80487,8099.14,0,54.13685,-7.846775,2.75E+07
471.9,-7.865249,-8126.097,47.41345,0,0,0,0,0,7.865249,41.9033,8126.097,0,54.30613,-7.865249,2.75E+07
473,-7.883306,-8153.439,47.57298,0,0,0,0,0,7.883306,41.9995,8153.439,0,54.47185,-7.883306,2.76E+07
474.1,-7.90172,-8181.42,47.73624,0,0,0,0,0,7.90172,42.0976,8181.42,0,54.64114,-7.90172,2.76E+07
475.2,-7.920076,-8211.076,47.90928,0,0,0,0,0,7.920076,42.1954,8211.076,0,54.81018,-7.920076,2.77E+07
476.3,-7.938431,-8237.731,48.0648,0,0,0,0,0,7.938431,42.29319,8237.731,0,54.97949,-7.938431,2.77E+07
477.4,-7.956846,-8265.72,48.22811,0,0,0,0,0,7.956846,42.3913,8265.72,0,55.14965,-7.956846,2.78E+07
478.5,-7.975023,-8290.564,48.37307,0,0,0,0,0,7.975023,42.48814,8290.564,0,55.3179,-7.975023,2.78E+07
479.6,-7.993199,-8315.348,48.51767,0,0,0,0,0,7.993199,42.58497,8315.348,0,55.48641,-7.993199,2.79E+07
480.7,-8.011913,-8345.268,48.69225,0,0,0,0,0,8.011912,42.68467,8345.269,0,55.66021,-8.011913,2.79E+07
481.8,-8.030208,-8371.461,48.84508,0,0,0,0,0,8.030209,42.78214,8371.461,0,55.83042,-8.030208,2.79E+07
482.9,-8.048206,-8396.861,48.99328,0,0,0,0,0,8.048205,42.87803,8396.861,0,55.99813,-8.048206,2.80E+07
484,-8.06662,-8427.544,49.17231,0,0,0,0,0,8.06662,42.97613,8427.544,0,56.17002,-8.06662,2.80E+07
485.1,-8.085335,-8460.486,49.36451,0,0,0,0,0,8.085335,43.07584,8460.485,0,56.34503,-8.085335,2.81E+07
486.2,-8.103451,-8486.203,49.51456,0,0,0,0,0,8.103451,43.17235,8486.203,0,56.51472,-8.103451,2.81E+07
487.3,-8.121686,-8516.119,49.68912,0,0,0,0,0,8.121686,43.2695,8516.119,0,56.68583,-8.121686,2.82E+07
488.4,-8.140041,-8544.862,49.85682,0,0,0,0,0,8.140041,43.36729,8544.862,0,56.85835,-8.140041,2.82E+07
489.5,-8.158337,-8574.588,50.03026,0,0,0,0,0,8.158337,43.46477,8574.588,0,57.03062,-8.158337,2.83E+07
490.6,-8.176812,-8605.767,50.21218,0,0,0,0,0,8.176812,43.5632,8605.767,0,57.20487,-8.176812,2.83E+07
491.7,-8.195108,-8635.601,50.38626,0,0,0,0,0,8.195107,43.66067,8635.602,0,57.37773,-8.195108,2.84E+07
492.8,-8.213224,-8663.65,50.54992,0,0,0,0,0,8.213223,43.75719,8663.649,0,57.54919,-8.213224,2.84E+07
493.9,-8.231759,-8698.008,50.75039,0,0,0,0,0,8.231759,43.85593,8698.009,0,57.72492,-8.231759,2.85E+07
495,-8.250293,-8731.889,50.94807,0,0,0,0,0,8.250293,43.95468,8731.889,0,57.90095,-8.250293,2.86E+07
496.1,-8.268349,-8759.577,51.10962,0,0,0,0,0,8.26835,44.05088,8759.577,0,58.07274,-8.268349,2.86E+07
497.2,-8.286526,-8790.904,51.29241,0,0,0,0,0,8.286527,44.14772,8790.904,0,58.24598,-8.286526,2.86E+07
498.3,-8.30524,-8827.006,51.50305,0,0,0,0,0,8.305241,44.24742,8827.006,0,58.42464,-8.30524,2.87E+07
499.4,-8.323475,-8858.664,51.68777,0,0,0,0,0,8.323476,44.34457,8858.664,0,58.59906,-8.323475,2.88E+07
500.5,-8.341771,-8891.436,51.87898,0,0,0,0,0,8.341771,44.44204,8891.436,0,58.77434,-8.341771,2.88E+07
501.6,-8.360127,-8924.631,52.07267,0,0,0,0,0,8.360126,44.53983,8924.632,0,58.95051,-8.360127,2.89E+07
502.7,-8.378363,-8957.466,52.26425,0,0,0,0,0,8.378363,44.63699,8957.466,0,59.12585,-8.378363,2.89E+07
503.8,-8.396778,-8986.855,52.43573,0,0,0,0,0,8.396778,44.7351,8986.855,0,59.30322,-8.396778,2.90E+07
504.9,-8.415193,-9019.989,52.62906,0,0,0,0,0,8.415194,44.83321,9019.989,0,59.4809,-8.415193,2.90E+07
506,-8.433309,-9051.704,52.8141,0,0,0,0,0,8.43331,44.92973,9051.704,0,59.65601,-8.433309,2.91E+07
507.1,-8.451784,-9087.425,53.02252,0,0,0,0,0,8.451783,45.02815,9087.425,0,59.83489,-8.451784,2.91E+07
508.2,-8.470199,-9123.358,53.23218,0,0,0,0,0,8.470199,45.12626,9123.358,0,60.01353,-8.470199,2.92E+07
509.3,-8.488435,-9155.734,53.42109,0,0,0,0,0,8.488435,45.22342,9155.734,0,60.19073,-8.488435,2.93E+07
510.4,-8.506611,-9190.991,53.6268,0,0,0,0,0,8.506611,45.32025,9190.991,0,60.36767,-8.506611,2.93E+07
511.5,-8.525086,-9231,53.86024,0,0,0,0,0,8.525086,45.41868,9231,0,60.54785,-8.525086,2.94E+07
512.6,-8.543442,-9264.058,54.05312,0,0,0,0,0,8.543442,45.51647,9264.058,0,60.72718,-8.543442,2.95E+07
513.7,-8.561797,-9300.594,54.2663,0,0,0,0,0,8.561797,45.61427,9300.594,0,60.90683,-8.561797,2.95E+07
514.8001,-8.580092,-9337.292,54.48042,0,0,0,0,0,8.580092,45.71173,9337.292,0,61.0862,-8.580092,2.96E+07
515.9,-8.598329,-9372.934,54.68839,0,0,0,0,0,8.59833,45.80889,9372.935,0,61.26534,-8.598329,2.96E+07
517,-8.616743,-9408.948,54.89852,0,0,0,0,0,8.616744,45.907,9408.948,0,61.44654,-8.616743,2.97E+07
518.1,-8.635218,-9446.76,55.11914,0,0,0,0,0,8.635219,46.00542,9446.76,0,61.62866,-8.635218,2.98E+07
519.2,-8.653274,-9481.072,55.31934,0,0,0,0,0,8.653275,46.10162,9481.072,0,61.80698,-8.653274,2.98E+07
520.3001,-8.671689,-9520.234,55.54784,0,0,0,0,0,8.671689,46.19973,9520.234,0,61.98917,-8.671689,2.99E+07
521.4,-8.690105,-9559.365,55.77616,0,0,0,0,0,8.690104,46.29784,9559.365,0,62.1717,-8.690105,3.00E+07
522.5,-8.70846,-9596.585,55.99332,0,0,0,0,0,8.70846,46.39563,9596.585,0,62.35396,-8.70846,3.00E+07
523.6,-8.726637,-9633.086,56.2063,0,0,0,0,0,8.726636,46.49247,9633.086,0,62.53478,-8.726637,3.01E+07
524.7,-8.744933,-9672.05,56.43364,0,0,0,0,0,8.744933,46.58995,9672.05,0,62.71712,-8.744933,3.01E+07
525.8001,-8.763407,-9710.329,56.65698,0,0,0,0,0,8.763408,46.68837,9710.328,0,62.90157,-8.763407,3.02E+07
526.9,-8.781643,-9748.062,56.87714,0,0,0,0,0,8.781643,46.78552,9748.062,0,63.08397,-8.781643,3.03E+07
528,-8.799878,-9786.612,57.10208,0,0,0,0,0,8.799878,46.88268,9786.612,0,63.26671,-8.799878,3.03E+07
529.1001,-8.818354,-9824.706,57.32434,0,0,0,0,0,8.818354,46.98111,9824.706,0,63.45218,-8.818354,3.04E+07
530.2,-8.836709,-9863.73,57.55204,0,0,0,0,0,8.836709,47.0789,9863.73,0,63.6368,-8.836709,3.05E+07
531.3001,-8.855005,-9902.452,57.77797,0,0,0,0,0,8.855004,47.17637,9902.452,0,63.82115,-8.855005,3.05E+07
532.4,-8.87324,-9938.61,57.98895,0,0,0,0,0,8.87324,47.27352,9938.61,0,64.00524,-8.87324,3.06E+07
533.5,-8.891536,-9977.942,58.21844,0,0,0,0,0,8.891536,47.37099,9977.942,0,64.19028,-8.891536,3.06E+07
534.6001,-8.910071,-10016.89,58.44566,0,0,0,0,0,8.91007,47.46974,10016.89,0,64.37809,-8.910071,3.07E+07
535.7,-8.928427,-10055.18,58.66908,0,0,0,0,0,8.928427,47.56754,10055.18,0,64.56442,-8.928427,3.08E+07
536.8001,-8.946483,-10094.51,58.89856,0,0,0,0,0,8.946482,47.66373,10094.51,0,64.74805,-8.946483,3.08E+07
537.9,-8.964838,-10135.87,59.13987,0,0,0,0,0,8.964838,47.76152,10135.87,0,64.93509,-8.964838,3.09E+07
539,-8.983492,-10177.66,59.38374,0,0,0,0,0,8.983492,47.8609,10177.66,0,65.12551,-8.983492,3.10E+07
540.1001,-9.001548,-10215.5,59.60452,0,0,0,0,0,9.001548,47.9571,10215.5,0,65.31019,-9.001548,3.10E+07
540.14,-9.002206,-10216.02,59.60753,0,0,0,0,0,9.002207,47.96061,10216.02,0,65.31693,-9.002206,3.10E+07